File: _static/March2024/BMM/Fe_Petedunnite.001
# XDI/1.0 BlueSky/1.11.0 BMM/2023-2.1-py310-tiled
# Beamline.name: BMM (06BM) -- Beamline for Materials Measurement (NIST)
# Beamline.xray_source: NSLS-II three-pole wiggler
# Beamline.collimation: paraboloid mirror, 5 nm Rh on 30 nm Pt
# Beamline.focusing: not in use
# Beamline.harmonic_rejection: flat mirror, Si stripe, pitch = 7.0 mrad relative to beam
# Beamline.software: Bluesky 1.11.0, Ophyd 1.8.0, DataBroker 2.0.0b23, Python 3.10.8, 2023-2.1-py310-tiled
# Detector.I0: 10 cm N2
# Detector.I1: 25 cm N2
# Detector.I2: 25 cm N2
# Detector.fluorescence: SII Vortex ME4 (4-element silicon drift)
# Detector.deadtime_correction: Xspress3
# Element.symbol: Fe
# Element.edge: K
# Element.reference: Fe
# Element.reference_material: Fe foil
# Facility.name: NSLS-II
# Facility.energy: 3.0
# Facility.current: 399.1
# Facility.mode: top-off
# Facility.GUP: 315355
# Facility.SAF: 313563
# Facility.cycle: 2024-1
# Mono.name: Si(111)
# Mono.d_spacing: 3.13542
# Mono.encoder_resolution: 0.0000050 deg/ct
# Mono.angle_offset: 16.0892 deg
# Mono.scan_mode: pseudo channel cut
# Mono.scan_type: step
# Mono.direction: forward in energy
# Sample.name: Ca(Zn,Mn,Fe,Mg)Si2O6
# Sample.prep: powder on tape
# Sample.x: 113.234 mm
# Sample.y: 81.177 mm
# Sample.SDD_position: 35.000 mm
# Scan.experimenters: Bruce Ravel
# Scan.edge_energy: 7112.0
# Scan.start_time: 2024-03-21T14:37:45
# Scan.end_time: 2024-03-21T14:48:12
# Scan.transient_id: 5354
# Scan.uid: 4acdc768-60fd-4cc5-a6a3-1e3597037b3f
# Scan.hdf5file: 2024/03/21/a46b4428-3f2c-42e3-a019_000000.h5
# Scan.plot_hint: (Fe1+Fe2+Fe3+Fe4)/I0  --  ($8+$9+$10+$11)/$5
# Column.1: energy eV
# Column.2: requested_energy eV
# Column.3: measurement_time seconds
# Column.4: xmu
# Column.5: I0 nA
# Column.6: It nA
# Column.7: Ir nA
# Column.8: Fe1
# Column.9: Fe2
# Column.10: Fe3
# Column.11: Fe4
# ///////////
# sample courtesy Martin Stennett, University of Sheffield
# -----------
# energy  requested_energy  measurement_time  xmu  I0  It  Ir  Fe1  Fe2  Fe3  Fe4
  6912.007  6912.000  1.000  21.6357  481.299  34.5257  4.192353  3328.38  3290.77  1716.37  2077.73
  6922.018  6922.000  1.000  21.288  480.691  34.8929  4.268369  3293.18  3227.73  1599.28  2112.77
  6932.017  6932.000  1.000  20.5552  480.326  35.2697  4.345958  3155.59  3088.62  1565.26  2063.74
  6942.019  6942.000  1.000  19.5733  480.102  35.6685  4.427802  2940.74  2918.5  1556.26  1981.68
  6952.006  6952.000  1.000  19.1672  479.718  36.062  4.509744  2889.51  2944.54  1481.21  1879.61
  6962.016  6962.000  1.000  18.5445  479.522  36.4608  4.593692  2770.24  2797.44  1490.23  1834.59
  6972.014  6972.000  1.000  17.9989  479.452  36.8704  4.678503  2700.49  2744.41  1398.16  1786.56
  6982.009  6982.000  1.000  17.5258  479.206  37.2778  4.764775  2631.48  2635.33  1382.15  1749.53
  6992.012  6992.000  1.000  17.5511  478.93  37.6825  4.850936  2593.67  2639.34  1418.2  1754.54
  7002.011  7002.000  1.000  16.9557  478.699  38.0973  4.938550  2535.79  2526.25  1360.15  1694.5
  7012.013  7012.000  1.000  17.0394  478.539  38.5157  5.028430  2526.03  2526.28  1432.23  1669.49
  7022.006  7022.000  1.000  16.4576  478.221  38.9211  5.116704  2351.42  2485.26  1318.13  1715.54
  7032.007  7032.000  1.000  16.1161  477.747  39.3242  5.205985  2392.65  2386.18  1313.13  1607.46
  7042.010  7042.000  1.000  15.5551  477.555  39.7374  5.295713  2282.73  2276.1  1300.14  1569.43
  7052.003  7052.000  1.000  15.0351  477.259  40.156  5.386822  2245.17  2228.06  1266.11  1436.32
  7061.995  7062.000  1.000  15.1444  473.108  40.2405  5.433054  2255.45  2140.99  1254.1  1514.39
  7072.005  7072.000  1.000  15.2477  476.151  40.9387  5.554426  2218.58  2273.14  1254.1  1514.39
  7081.998  7082.000  1.000  14.5264  475.865  41.3697  5.634833  2151.2  2032.92  1244.11  1484.39
  7083.990  7084.000  1.000  14.7343  474.083  41.3059  5.627990  2117.75  2082.97  1285.15  1499.4
  7085.998  7086.000  1.000  14.6611  475.156  41.4845  5.657725  2138.84  2121.01  1283.15  1423.33
  7087.995  7088.000  1.000  14.6464  475.282  41.5866  5.673943  2078.64  2110  1277.14  1495.4
  7090.000  7090.000  1.000  14.8833  475.2  41.6615  5.683779  2159.95  2104  1310.18  1498.41
  7092.001  7092.000  1.000  14.8354  475.114  41.7421  5.693642  2159.95  2104  1286.16  1498.41
  7094.001  7094.000  1.000  14.7526  475.117  41.8308  5.703864  2076.57  2097  1309.18  1526.44
  7096.003  7096.000  1.000  14.6578  474.975  41.9096  5.707989  2129.55  2030.94  1294.16  1507.42
  7097.997  7098.000  1.000  14.7608  474.919  41.9936  5.710307  2173.64  2044.96  1288.16  1503.42
  7100.005  7100.000  1.000  14.6393  474.907  42.0824  5.708709  2098.72  2107.03  1256.14  1490.41
  7101.999  7102.000  1.000  14.9794  474.841  42.1635  5.695731  2083.08  2107.03  1432.3  1490.41
  7102.295  7102.300  1.000  15.1367  474.621  42.1546  5.690660  2168.47  2112.03  1374.25  1529.45
  7102.587  7102.600  1.000  15.0629  474.683  42.1747  5.689187  2115.37  2196.11  1329.2  1509.43
  7102.889  7102.900  1.000  15.3906  474.618  42.1859  5.685320  2244.91  2117.04  1387.26  1555.48
  7103.186  7103.200  1.000  14.9192  474.747  42.2077  5.683364  2123.18  2055.97  1355.23  1548.46
  7103.486  7103.500  1.000  15.3834  474.646  42.216  5.677154  2130.79  2218.14  1366.25  1586.51
  7103.785  7103.800  1.000  15.0411  474.674  42.2275  5.672288  2093.82  2147.07  1367.24  1531.46
  7104.091  7104.100  1.000  15.3637  474.662  42.2423  5.668347  2141.71  2253.16  1338.21  1559.47
  7104.386  7104.400  1.000  15.266  474.549  42.248  5.661828  2205.68  2102.03  1330.21  1606.53
  7104.690  7104.700  1.000  15.2034  474.72  42.2765  5.657683  2118.53  2131.06  1419.29  1548.47
  7104.992  7105.000  1.000  15.9443  474.589  42.278  5.649174  2226.97  2263.18  1450.32  1626.55
  7105.283  7105.300  1.000  15.3757  474.616  42.2971  5.641863  2240.81  2043.97  1450.32  1562.48
  7105.594  7105.600  1.000  15.267  474.64  42.3053  5.633449  2169.53  2123.04  1413.28  1540.46
  7105.891  7105.900  1.000  15.6837  474.637  42.3223  5.624162  2150.05  2218.14  1460.33  1615.54
  7106.195  7106.200  1.000  15.8504  474.352  42.3109  5.607945  2269.71  2167.1  1459.33  1622.54
  7106.495  7106.500  1.000  15.8723  474.348  42.3238  5.596610  2230  2198.11  1505.37  1595.51
  7106.795  7106.800  1.000  15.6306  474.289  42.3361  5.582842  2157.42  2262.19  1428.3  1565.49
  7107.099  7107.100  1.000  16.214  474.249  42.3446  5.566277  2288.35  2285.21  1497.36  1618.54
  7107.401  7107.400  1.000  16.2457  474.286  42.3586  5.548015  2247.91  2320.25  1427.3  1709.63
  7107.700  7107.700  1.000  16.2531  474.11  42.3571  5.524400  2277.6  2250.17  1427.3  1750.66
  7108.000  7108.000  1.000  16.5674  473.967  42.3602  5.497795  2348.2  2284.2  1506.37  1713.63
  7108.300  7108.300  1.000  16.7444  474.098  42.392  5.471414  2348.2  2275.19  1566.43  1748.66
  7108.602  7108.600  1.000  16.6051  474.15  42.4002  5.435081  2240.98  2306.23  1616.47  1709.63
  7108.894  7108.900  1.000  17.1459  473.924  42.3942  5.392453  2394.43  2319.24  1659.51  1752.67
  7109.196  7109.200  1.000  16.9036  474.05  42.4189  5.344024  2294.71  2361.28  1604.46  1752.67
  7109.496  7109.500  1.000  16.8904  474.005  42.4336  5.279546  2294.71  2354.28  1604.46  1752.67
  7109.794  7109.800  1.000  18.2167  473.777  42.4327  5.188958  2463.79  2429.35  1833.68  1903.82
  7110.102  7110.100  1.000  18.7131  473.876  42.4494  5.065544  2503.68  2594.5  1840.67  1928.83
  7110.398  7110.400  1.000  19.7601  473.726  42.4487  4.891298  2669.47  2630.57  1993.84  2066.98
  7110.700  7110.700  1.000  21.1257  473.579  42.4379  4.642510  2764.76  2883.81  2064.9  2291.2
  7111.000  7111.000  1.000  22.9637  473.487  42.4377  4.316281  2878.4  3018.94  2325.13  2650.54
  7111.300  7111.300  1.000  25.6308  473.367  42.4332  3.916414  3204.26  3345.26  2774.56  2808.69
  7111.605  7111.600  1.000  27.9215  473.33  42.4414  3.493827  3353.63  3554.48  3099.87  3208.1
  7111.903  7111.900  1.000  31.2103  473.348  42.4481  3.124011  3782.81  3869.78  3513.24  3607.49
  7112.201  7112.200  1.000  33.1826  473.145  42.4422  2.831889  3959.93  4184.1  3725.45  3830.71
  7112.499  7112.500  1.000  35.1563  473.129  42.4522  2.615529  4183.48  4410.34  3984.7  4054.94
  7112.802  7112.800  1.000  36.6589  472.999  42.4559  2.450524  4391.18  4560.49  4220.92  4167.06
  7113.104  7113.100  1.000  38.0251  472.854  42.4471  2.315846  4477.28  4732.66  4320.02  4450.34
  7113.396  7113.400  1.000  39.1227  472.971  42.4667  2.204929  4520.33  4910.88  4602.32  4470.36
  7113.696  7113.700  1.000  40.7292  472.834  42.473  2.099751  4801.18  5013.96  4645.35  4797.68
  7113.997  7114.000  1.000  41.3121  472.855  42.4959  2.004163  4836.37  5007.98  4722.45  4967.85
  7114.299  7114.300  1.000  42.3284  472.888  42.5052  1.920005  4966  5217.17  4876.58  4956.84
  7114.608  7114.600  1.000  43.2781  472.829  42.5097  1.847325  4888.02  5319.28  5158.86  5097
  7114.907  7114.900  1.000  44.192  472.694  42.5037  1.792725  5070.9  5410.39  5088.78  5319.23
  7115.201  7115.200  1.000  44.9772  472.791  42.5243  1.753371  5215.26  5497.45  5256.95  5295.17
  7115.503  7115.500  1.000  45.6157  472.74  42.5281  1.725193  5332.6  5630.59  5301.98  5299.19
  7115.808  7115.800  1.000  46.0383  472.815  42.5507  1.705759  5332.6  5556.53  5294  5584.5
  7116.107  7116.100  1.000  45.2276  472.752  42.5571  1.689225  5269.7  5589.57  5268.98  5253.17
  7116.407  7116.400  1.000  45.602  472.621  42.5565  1.673300  5253.56  5628.62  5334.04  5336.24
  7116.706  7116.700  1.000  46.4545  472.584  42.5715  1.651680  5439.58  5446.42  5556.24  5511.44
  7117.002  7117.000  1.000  46.5425  472.373  42.5547  1.618112  5400.26  5653.63  5418.11  5513.42
  7117.303  7117.300  1.000  47.7314  472.572  42.5912  1.571162  5470.89  5802.78  5564.24  5718.64
  7117.603  7117.600  1.000  48.7346  472.493  42.5892  1.505584  5746.88  5865.85  5673.37  5740.66
  7117.898  7117.900  1.000  49.8307  472.274  42.58  1.426652  5785.38  6103.1  5944.64  5700.62
  7118.201  7118.200  1.000  51.4943  472.266  42.5885  1.335693  5795.81  6207.23  6228.92  6087.03
  7118.499  7118.500  1.000  53.2198  472.137  42.5911  1.241106  6034.39  6440.42  6350.01  6302.22
  7118.804  7118.800  1.000  54.0258  472.176  42.6022  1.149289  6141.67  6447.48  6354.04  6566.53
  7119.107  7119.100  1.000  55.146  472.06  42.6036  1.061739  6141.67  6447.48  6576.26  6866.84
  7119.412  7119.400  1.000  58.0288  471.868  42.5953  0.979623  6541.37  6930.99  7035.74  6873.87
  7119.705  7119.700  1.000  59.9603  472.048  42.6208  0.906138  6743.84  7135.18  7242.93  7182.17
  7120.006  7120.000  1.000  62.694  471.951  42.6228  0.832663  6845.92  7493.6  7601.28  7647.68
  7120.311  7120.300  1.000  64.6774  473.673  42.785  0.766197  7296.65  7715.87  7877.61  7745.8
  7120.610  7120.600  1.000  67.4711  473.517  42.7788  0.701239  7579.37  7983.14  8265.02  8121.19
  7120.909  7120.900  1.000  69.5167  473.53  42.788  0.643722  7617.87  8248.45  8536.26  8515.62
  7121.207  7121.200  1.000  71.3588  473.329  42.7889  0.592699  7764.04  8515.72  8749.51  8746.88
  7121.511  7121.500  1.000  72.7545  473.259  42.7953  0.550083  8135.4  8531.73  8968.71  8795.91
  7121.838  7121.800  1.000  74.1275  473.242  42.7961  0.511690  8160.06  8834.11  9201.01  8885.05
  7122.085  7122.100  1.000  75.87  473.483  42.8265  0.486205  8358.32  8757.01  9423.23  9384.56
  7122.408  7122.400  1.000  77.7256  473.288  42.8188  0.457644  8605.21  9010.26  9728.52  9442.64
  7122.722  7122.700  1.000  80.4842  473.119  42.8166  0.431326  8967.16  9521.83  9805.61  9783.99
  7123.023  7123.000  1.000  82.4177  473.189  42.8335  0.410598  8920.54  9742.12  10090  10246.5
  7123.363  7123.300  1.000  85.0137  473.34  42.8526  0.393871  9202.62  10207.7  10489.4  10340.7
  7123.666  7123.600  1.000  86.2759  473.151  42.8525  0.377184  9319.42  10150.5  10796.7  10554.9
  7123.939  7123.900  1.000  88.5993  472.834  42.8257  0.363570  9683.97  10606  10874.7  10728
  7124.239  7124.200  1.000  90.7272  472.684  42.8267  0.350646  10075.7  10342.8  11203.1  11263.7
  7124.544  7124.500  1.000  91.8797  472.855  42.8526  0.338891  10035.5  10706.2  11407.4  11296.7
  7124.818  7124.800  1.000  94.0905  472.564  42.8381  0.328106  10202.7  10992.5  11761.7  11506.9
  7125.110  7125.100  1.000  95.1275  472.654  42.8587  0.318073  10379  11136.6  11802.7  11644.1
  7125.416  7125.400  1.000  96.3936  472.613  42.858  0.308097  10477.7  11327.9  11907.9  11843.3
  7125.700  7125.700  1.000  97.5055  472.523  42.8626  0.299043  10621.9  11306  12087.1  12058.6
  7126.010  7126.000  1.000  98.9118  472.493  42.8696  0.290362  10621.9  11607.2  12463.4  12042.6
  7126.301  7126.300  1.000  100.697  472.505  42.8771  0.281628  10658.6  11764.4  12672.7  12484.1
  7126.602  7126.600  1.000  102.26  472.343  42.865  0.272693  11123.5  11995.6  12762.8  12420
  7126.902  7126.900  1.000  104.067  472.049  42.847  0.263450  11198.1  12307  12894  12725.3
  7127.206  7127.200  1.000  105.632  472.03  42.8608  0.253987  11324.3  12340.1  13258.4  12938.6
  7127.509  7127.500  1.000  107.633  472.047  42.8714  0.244007  11419.8  12434.2  13540.8  13413.1
  7127.807  7127.800  1.000  109.889  472.12  42.8887  0.233815  11888.3  12704.5  13726.9  13561.3
  7128.104  7128.100  1.000  111.58  471.965  42.8771  0.223726  12087.6  12931.8  13978.2  13664.5
  7128.403  7128.400  1.000  114.385  471.836  42.8732  0.213089  12247  13521.5  14188.5  14013.9
  7128.705  7128.700  1.000  115.445  471.576  42.8662  0.202704  12519.9  13237.1  14520.8  14163
  7129.007  7129.000  1.000  116.565  471.554  42.8809  0.192641  12585.2  13548.5  14616.8  14216.1
  7129.304  7129.300  1.000  117.875  471.472  42.8853  0.183281  12589.7  13675.7  14806.1  14503.4
  7129.600  7129.600  1.000  119.545  471.544  42.9084  0.174909  12985  13685.7  15018.3  14681.7
  7129.903  7129.900  1.000  120.579  471.36  42.9014  0.167297  12824.6  13805.8  15225.6  14980
  7130.199  7130.200  1.000  121.279  470.954  42.8681  0.161106  12771.1  14140.2  15114.4  15091.1
  7130.503  7130.500  1.000  121.104  471.138  42.8967  0.156425  12771.1  14140.2  15054.3  15091.1
  7130.803  7130.800  1.000  120.88  470.829  42.8787  0.153325  12947.5  14168.2  15033.4  14764.7
  7131.098  7131.100  1.000  121.11  470.742  42.8861  0.151990  12935.2  13917.9  15243.5  14914.9
  7131.404  7131.400  1.000  120.162  470.825  42.9012  0.152370  12619.8  14147.2  15054.5  14753.8
  7131.708  7131.700  1.000  119.856  470.705  42.9029  0.155171  12646.7  13681.7  15280.6  14807.7
  7132.006  7132.000  1.000  119.159  470.503  42.9064  0.159147  12587.8  13806.8  14933.3  14736.7
  7132.304  7132.300  1.000  117.81  470.555  42.9249  0.164843  12580.1  13589.6  14773.1  14493.4
  7132.606  7132.600  1.000  117.674  470.463  42.9289  0.171385  12580.1  13589.6  14773.1  14418.3
  7132.906  7132.900  1.000  117.891  470.561  42.9572  0.178965  12837.4  13651.6  14805.1  14181
  7133.203  7133.200  1.000  117.304  470.35  42.955  0.186925  12498  13539.5  14672  14464.4
  7133.501  7133.500  1.000  116.531  470.552  42.9892  0.195443  12483.6  13488.4  14594.9  14267.2
  7133.799  7133.800  1.000  115.152  470.427  42.9929  0.203564  12435.7  13126  14400.7  14208.1
  7134.097  7134.100  1.000  114.679  470.355  43.0048  0.211454  12196.9  13126.1  14438.7  14178.1
  7134.405  7134.400  1.000  111.399  470.57  43.0376  0.218993  12133.6  12802.7  13656.9  13827.7
  7134.699  7134.700  1.000  112.249  470.516  43.0444  0.225433  12133.6  12949.8  13845.1  13886.7
  7134.997  7135.000  1.000  111.72  470.521  43.0557  0.231730  11962.8  12801.7  13927.2  13874.8
  7135.304  7135.300  1.000  112.048  470.494  43.0716  0.237094  12135.7  12916.8  13963.1  13702.5
  7135.602  7135.600  1.000  112.233  470.452  43.0853  0.241668  11981.6  13056  13932.2  13830.7
  7135.906  7135.900  1.000  110.45  470.25  43.0856  0.245085  11772  12797.7  13658.9  13710.5
  7136.204  7136.200  1.000  110.313  470.307  43.1101  0.248077  11753.9  12797.7  13909.2  13420.2
  7136.500  7136.500  1.000  110.136  470.312  43.1315  0.249786  11807.3  12916.8  13619.8  13454.2
  7136.805  7136.800  1.000  110.113  470  43.1109  0.250911  11866.5  12705.5  13632.7  13548.3
  7137.001  7137.000  1.000  110.434  470.102  43.1273  0.251048  11982.5  12614.5  13809  13509.3
  7137.997  7137.990  1.000  108.86  470.162  43.1815  0.247085  11770.6  12580.4  13496.7  13334.1
  7139.009  7138.990  1.000  108.522  470.002  43.2086  0.236672  11568.6  12580.4  13522.7  13334.1
  7140.038  7140.010  1.000  109.809  470.055  43.2604  0.225269  11649.3  12775.7  13811  13380.2
  7141.065  7141.060  1.000  109.354  469.923  43.2921  0.218137  11600.5  12776.6  13590.8  13420.2
  7142.120  7142.120  1.000  109.589  469.73  43.3101  0.217022  11534.4  12819.7  13663.9  13459.2
  7143.204  7143.200  1.000  108.965  469.746  43.3621  0.220609  11702.2  12709.6  13527.8  13246.1
  7144.317  7144.300  1.000  108.417  469.624  43.408  0.224391  11709.4  12437.2  13483.6  13285
  7145.434  7145.420  1.000  106.611  469.564  43.4548  0.223547  11385.4  12465.3  13288.5  12921.7
  7146.567  7146.560  1.000  106.3  469.447  43.4938  0.215827  11282.5  12375.2  13231.4  13012.8
  7147.724  7147.710  1.000  106.313  469.546  43.5547  0.203147  11258.2  12378.2  13288.5  12993.8
  7148.907  7148.890  1.000  106.971  469.578  43.6141  0.189961  11407.4  12401.3  13342.6  13079.9
  7150.100  7150.080  1.000  106.357  469.604  43.6727  0.181258  11205.9  12296.2  13412.7  13030.9
  7151.316  7151.300  1.000  105.615  469.575  43.726  0.176206  11503.5  12131  13066.2  12893.7
  7152.549  7152.530  1.000  105.719  469.366  43.7546  0.172837  11503.5  12047.9  13284.6  12784.6
  7153.803  7153.780  1.000  105.063  469.205  43.7999  0.171081  11079.9  12254.1  13098.3  12863.7
  7155.063  7155.050  1.000  106.015  469.215  43.8631  0.172970  11276.4  12177.1  13224.5  13065.9
  7156.355  7156.340  1.000  105.235  469.222  43.9233  0.176293  11276.4  12177.1  13224.5  12700.5
  7157.665  7157.650  1.000  104.246  469.447  44.0122  0.179410  11178.9  12076  12944.3  12738.6
  7159.000  7158.980  1.000  103.889  469.321  44.0618  0.181006  10970.5  12169.1  12907.3  12710.6
  7160.339  7160.330  1.000  105.35  469.094  44.1023  0.181514  11214.6  12251.2  13028.3  12924.8
  7161.719  7161.700  1.000  104.523  468.905  44.1449  0.183044  11069.4  12133.1  12948.4  12860.7
  7163.094  7163.080  1.000  103.982  468.653  44.1834  0.186111  11091.9  11958.8  12949.2  12731.6
  7164.500  7164.490  1.000  105.781  468.609  44.2444  0.190431  11355.6  12148.1  13016.3  13050
  7165.921  7165.910  1.000  106.042  468.507  44.3036  0.193857  11208.1  12166.1  13304.6  13002.9
  7167.363  7167.350  1.000  106.951  468.259  44.3415  0.196664  11259.6  12349.4  13413.8  13058
  7168.819  7168.810  1.000  107.396  469.594  44.5331  0.199741  11287.6  12429.5  13493.9  13221.3
  7170.300  7170.290  1.000  107.474  469.498  44.5929  0.203798  11410  12507.6  13461.9  13079.1
  7171.801  7171.790  1.000  107.73  469.229  44.6327  0.210024  11544.4  12397.5  13360.8  13247.3
  7173.320  7173.310  1.000  107.483  469.06  44.6898  0.219237  11409.4  12457.6  13541  13008
  7174.864  7174.850  1.000  107.479  468.904  44.7444  0.231325  11468.8  12272.4  13465  13191.3
  7176.426  7176.410  1.000  107.01  468.817  44.811  0.245402  11289.6  12330.5  13457  13091.2
  7177.987  7177.980  1.000  106.711  468.644  44.87  0.258693  11320.1  12186.3  13343.8  13159.2
  7179.598  7179.580  1.000  106.67  468.825  44.9642  0.267854  11320.1  12186.3  13343.8  13159.2
  7181.199  7181.190  1.000  106.122  468.708  45.0304  0.270625  11314.8  12150.3  13238.8  13036.1
  7182.839  7182.830  1.000  106.75  468.459  45.0703  0.268434  11346.8  12243.4  13280.9  13137.2
  7184.492  7184.480  1.000  106.789  468.271  45.13  0.263383  11207.8  12329.5  13322.9  13146.2
  7186.155  7186.150  1.000  107.659  468.147  45.1877  0.253592  11417.4  12360.6  13264.9  13357.5
  7187.854  7187.840  1.000  107.818  468.198  45.2646  0.241215  11412.4  12542.7  13490.1  13035.1
  7189.558  7189.550  1.000  108.97  460.173  44.5671  0.225175  11280.8  12284.3  13274.6  13305.3
  7191.293  7191.280  1.000  109.343  467.342  45.3383  0.215719  11345  12731  13470  13554.8
  7193.043  7193.030  1.000  110.482  467.635  45.4488  0.204609  11853.7  12498.7  13874.4  13438.6
  7194.797  7194.790  1.000  110.202  467.664  45.5344  0.200942  11736.3  12399.7  13868.5  13532.8
  7196.590  7196.580  1.000  110.653  467.727  45.6297  0.205719  11736.3  12617.9  13868.5  13532.8
  7198.389  7198.380  1.000  109.391  467.637  45.6986  0.216341  11566.2  12617.9  13588.3  13382.7
  7200.217  7200.210  1.000  108.04  467.331  45.748  0.231609  11255.7  12351.7  13606.4  13276.6
  7202.059  7202.050  1.000  107.39  467.034  45.8042  0.249417  11322.8  12428.7  13284.9  13118.3
  7203.924  7203.910  1.000  107.499  467.212  45.917  0.270817  11442.8  12383.7  13286.9  13111.4
  7205.799  7205.790  1.000  106.631  466.99  45.9856  0.290563  11262.9  12282.6  13316  12934.2
  7207.695  7207.690  1.000  106.435  466.796  46.0559  0.300542  11262.9  12282.6  13316  12822.1
  7209.620  7209.610  1.000  105.738  466.697  46.1287  0.291626  11215.1  12018.4  13383.2  12731
  7211.556  7211.550  1.000  107.694  466.803  46.2371  0.263527  11313.5  12276.7  13455.3  13226.6
  7213.519  7213.510  1.000  109.415  466.363  46.2905  0.223746  11487.9  12387.8  13781.6  13369.8
  7215.494  7215.480  1.000  111.543  465.847  46.3201  0.187408  11825.1  12693.1  13921.7  13521.9
  7217.490  7217.480  1.000  113.193  465.96  46.4201  0.161471  11868.8  12817.4  14219.1  13838.4
  7219.503  7219.490  1.000  114.468  465.35  46.4459  0.147231  12196.6  12919.4  14201  13950.5
  7221.528  7221.520  1.000  114.085  465.247  46.5295  0.144547  12077.8  12837.4  14350.3  13812.3
  7223.594  7223.580  1.000  113.136  464.862  46.5965  0.154218  11881  12804.3  14102  13805.4
  7225.664  7225.650  1.000  112.091  463.521  46.5665  0.173545  11714.5  12581.1  13938.7  13722.2
  7227.752  7227.740  1.000  109.812  464.581  46.7669  0.201482  11470.2  12362.8  13730.7  13452.9
  7229.857  7229.850  1.000  108.254  464.722  46.8785  0.233941  11460.2  12218.7  13393.3  13235.7
  7231.993  7231.980  1.000  106.936  464.518  46.9638  0.269562  11182.5  12065.5  13389.3  13036.5
  7234.127  7234.120  1.000  105.272  464.251  47.0485  0.303098  10912.1  11966.4  13280.2  12714.1
  7236.308  7236.290  1.000  104.387  464.438  47.1706  0.328025  10803.1  11820.2  13104.9  12753.1
  7238.487  7238.480  1.000  104.146  464.253  47.2529  0.339752  10841.1  11924.4  12860.7  12724.1
  7240.693  7240.680  1.000  104.285  463.638  47.2887  0.337865  10841.1  11924.4  12860.7  12724.1
  7242.908  7242.900  1.000  105.091  463.26  47.3475  0.326708  10917.7  11855.4  13004.9  12906.4
  7245.157  7245.150  1.000  106.343  463.109  47.4328  0.311190  10916.9  12227.8  13310.3  12793.3
  7247.420  7247.410  1.000  107.254  454.65  46.6648  0.292845  11128.1  11890.2  13039.7  12704.9
  7249.707  7249.690  1.000  108.037  462.518  47.5828  0.292445  11164.9  12396  13422.4  12985.6
  7252.002  7251.990  1.000  107.606  462.619  47.7097  0.296550  11248.9  11905.6  13351.3  13274.9
  7254.316  7254.310  1.000  108.086  461.565  47.7096  0.305212  11248.9  12312.9  13351.3  12975.5
  7256.666  7256.650  1.000  108.262  462.234  47.891  0.312876  11242.5  12267.9  13505.5  13026.6
  7259.006  7259.000  1.000  108.246  461.916  47.9679  0.311212  11083.3  12047.7  13578.6  13291
  7261.394  7261.380  1.000  108.279  460.407  47.9113  0.301972  11083.3  12169.8  13465.6  13133.8
  7263.780  7263.770  1.000  110.607  421.412  43.8148  0.273344  10365.9  11339.9  12510.4  12394.9
  7266.199  7266.190  1.000  109.058  461.39  48.2459  0.289316  11433.2  12170.9  13437.5  13277
  7268.637  7268.620  1.000  110.107  462.931  48.5142  0.283224  11299.4  12546.4  13634.8  13491.3
  7271.082  7271.070  1.000  111.43  462.215  48.5467  0.270213  11742.1  12489.3  13825.1  13448.3
  7273.559  7273.550  1.000  110.929  459.714  48.4098  0.255357  11454.8  12429.3  13774  13337.3
  7276.054  7276.040  1.000  111.696  462.373  48.7966  0.249326  11598.2  12546.4  13979.3  13521.4
  7278.560  7278.550  1.000  111.142  462.38  48.9255  0.245633  11444.4  12584.5  13888.3  13472.5
  7281.086  7281.070  1.000  112.492  459.782  48.7516  0.238365  11444.4  12584.5  13987.3  13705.5
  7283.634  7283.620  1.000  112.691  461.161  49.0282  0.230292  11715  12679.7  13989.3  13584.5
  7286.204  7286.190  1.000  113.014  461.215  49.1532  0.223149  11828.2  12468.4  14044.5  13782.8
  7288.785  7288.770  1.000  113.351  461.168  49.2711  0.220477  11611.6  12803.9  14104.6  13753.9
  7291.389  7291.380  1.000  113.2  461.024  49.3818  0.228970  11400.5  12831.9  14077.5  13878
  7294.007  7294.000  1.000  112.723  460.968  49.5072  0.249319  11400.5  12831.9  13851.3  13878
  7296.664  7296.650  1.000  110.564  460.726  49.6164  0.276203  11438.3  12460.6  13640.2  13400.5
  7299.323  7299.310  1.000  110.474  460.282  49.6913  0.302481  11439.4  12439.5  13708.2  13262.3
  7301.995  7301.990  1.000  109.581  457.496  49.5087  0.324400  11469  12039  13418.8  13206.1
  7304.706  7304.690  1.000  108.677  460.581  49.9798  0.345471  11220  12265.4  13409.9  13159.3
  7307.421  7307.410  1.000  108.041  460.195  50.0693  0.357922  10949.7  12525.6  13180.6  13064.1
  7310.163  7310.150  1.000  107.356  460.06  50.1831  0.363326  11231.8  11963  13335.8  12859.9
  7312.909  7312.900  1.000  107.874  459.654  50.2653  0.363819  11014.6  12186.3  13538.1  12845.9
  7315.692  7315.680  1.000  106.788  459.357  50.3703  0.364718  11010.2  11976.1  13102.6  12965.1
  7318.479  7318.470  1.000  107.289  459.113  50.477  0.366818  11025  11879.9  13342.8  13010.1
  7321.300  7321.290  1.000  108.462  458.875  50.5934  0.369383  11012.8  12174.3  13610.2  12973
  7324.133  7324.120  1.000  107.423  458.754  50.7218  0.371790  11165.2  12034.1  13119.6  12962.1
  7326.977  7326.970  1.000  108.067  458.617  50.8462  0.373260  11118.6  12161.4  13356  12925.1
  7329.857  7329.850  1.000  108.386  458.245  50.948  0.376014  11193.1  12050.2  13455  12969.1
  7332.756  7332.740  1.000  107.577  457.847  51.0366  0.383655  11031.6  12048.3  13219.8  12954.1
  7335.662  7335.650  1.000  107.289  457.968  51.1891  0.393952  11124.9  12023.3  13219.8  12767
  7338.579  7338.570  1.000  108.023  457.799  51.3186  0.399792  11193.2  11975.3  13411.1  12873.1
  7341.531  7341.520  1.000  108.188  449.223  50.4907  0.389987  10779.5  11905.9  13094.4  12820.8
  7344.504  7344.490  1.000  109.133  457.084  51.5196  0.384009  11095.9  12235.6  13452.2  13099.4
  7347.481  7347.470  1.000  109.53  456.813  51.632  0.364328  11056  12273.7  13446.3  13258.6
  7350.494  7350.480  1.000  110.987  456.612  51.756  0.345775  11423.2  12277.7  13566.3  13410.9
  7353.508  7353.500  1.000  112.399  456.333  51.8697  0.330286  11479.8  12482.9  13873.7  13454.9
  7356.562  7356.550  1.000  111.879  456.089  51.9907  0.317692  11262.2  12429.9  13933.8  13400.9
  7359.621  7359.610  1.000  112.661  456.17  52.1528  0.307097  11483.6  12411.9  14077  13419.9
  7362.704  7362.690  1.000  114.853  455.937  52.2594  0.299448  11429.1  12876.6  14230.4  13829.5
  7365.798  7365.790  1.000  113.48  455.718  52.3879  0.297000  11641.6  12473  14078  13522.1
  7368.921  7368.910  1.000  113.715  455.608  52.5346  0.301579  11640  12619.3  13834.9  13715.3
  7372.064  7372.050  1.000  112.434  455.269  52.6421  0.314493  11492.1  12422.2  13752.9  13520.3
  7375.211  7375.200  1.000  112.646  454.716  52.7434  0.338784  11341.9  12635.3  13811.8  13433
  7378.390  7378.380  1.000  111.218  454.271  52.8616  0.373771  11252.4  12294.9  13790.9  13184.8
  7381.577  7381.570  1.000  110.737  454.063  52.9903  0.415023  11385.6  12101.7  13640.7  13153.8
  7384.792  7384.790  1.000  109.51  453.786  53.1141  0.447445  11113.5  12095.7  13366.4  13118.7
  7388.029  7388.020  1.000  108.974  453.472  53.2298  0.460274  11020.1  12084.7  13411.4  12900.5
  7391.283  7391.270  1.000  109.562  453.21  53.357  0.459596  10896.5  12078.8  13597.7  13081.7
  7394.567  7394.550  1.000  109.638  453.352  53.5459  0.453423  11166.7  12010.7  13453.6  13073.8
  7397.850  7397.840  1.000  109.851  453.167  53.682  0.448851  11166.7  12141.9  13428.6  13043.8
  7401.154  7401.150  1.000  109.951  452.549  53.7671  0.449368  11087.4  12057.7  13660.7  12952.6
  7404.478  7404.470  1.000  109.902  452.693  53.9537  0.452764  11124.5  12023.8  13453.7  13150
  7407.831  7407.820  1.000  110.476  453.698  54.226  0.455042  11267.9  12011.8  13498.6  13344.2
  7411.206  7411.190  1.000  111.19  453.197  54.3271  0.454667  11059.7  12123  13899.1  13309.2
  7414.583  7414.570  1.000  110.875  452.831  54.4492  0.455341  11155.4  12170.1  13550.7  13331.3
  7417.999  7417.980  1.000  109.844  452.317  54.5477  0.457965  10978.4  12090.9  13586.9  13027.9
  7421.416  7421.400  1.000  109.798  452.076  54.6917  0.464900  10978.4  12090.9  13438.7  13129
  7424.867  7424.850  1.000  110.14  451.86  54.8325  0.475813  11139.2  11962.9  13478.8  13187.1
  7428.324  7428.310  1.000  110.233  451.535  54.9631  0.484706  10951.7  12200.2  13514.8  13107.1
  7431.795  7431.790  1.000  110.436  451.381  55.1175  0.486671  11053.4  12066  13617  13112.1
  7435.296  7435.290  1.000  110.773  450.623  55.1852  0.484735  10967.2  12164.2  13560  13225.3
  7438.807  7438.810  1.000  112.088  450.082  55.2893  0.478961  11144.8  12303.4  13578  13422.5
  7442.352  7442.350  1.000  112.172  450.031  55.467  0.467678  11218.9  12152.2  13807.3  13302.4
  7445.901  7445.900  1.000  112.473  439.54  54.3783  0.444391  10992.2  11915.6  13409.6  13119
  7449.496  7449.480  1.000  112.84  449.795  55.7843  0.447464  11295.2  12342.5  13620.2  13496.7
  7453.085  7453.080  1.000  112.784  447.741  55.691  0.443728  11299  12203.3  13652.1  13343.5
  7456.699  7456.690  1.000  114.073  448.61  55.9879  0.446732  11533.6  12368.7  13862.5  13409.7
  7460.333  7460.320  1.000  112.856  448.478  56.1565  0.451089  11125.3  12384.7  13582.3  13520.9
  7463.992  7463.980  1.000  112.316  448.223  56.3034  0.459063  11031.2  12249.5  13750.5  13311.6
  7467.660  7467.650  1.000  113.572  439.456  55.3411  0.464983  10853.4  11970.9  13708.2  13377.4
  7471.352  7471.340  1.000  113.037  447.586  56.5848  0.489969  10925.7  12242.5  14043.8  13381.7
  7475.063  7475.050  1.000  112.792  447.006  56.6952  0.506665  11231  12174.5  13705.4  13307.6
  7478.785  7478.780  1.000  112.01  446.459  56.8141  0.520279  11029.5  12174.5  13626.4  13177.6
  7482.532  7482.520  1.000  111.973  445.95  56.9312  0.532676  11030.2  12178.5  13619.3  13106.4
  7486.288  7486.290  1.000  112.353  445.465  57.0548  0.548549  10984.9  12269.6  13547.3  13247.6
  7490.095  7490.080  1.000  112.593  445.08  57.1983  0.565281  10965.3  12236.6  13406.1  13504.9
  7493.892  7493.880  1.000  112.777  444.634  57.3314  0.578202  11159  12121.5  13541.3  13322.7
  7497.727  7497.710  1.000  111.94  444.014  57.4309  0.583665  11014.3  12067.5  13473.3  13147.6
  7501.558  7501.550  1.000  112.673  443.466  57.5453  0.582712  11166.2  12127.6  13422.2  13250.7
  7505.413  7505.410  1.000  112.544  443.076  57.6832  0.581474  11077  12151.7  13562.4  13074.6
  7509.296  7509.290  1.000  113.416  442.576  57.8059  0.582116  11005.2  12083.6  13719.6  13387
  7513.190  7513.190  1.000  112.063  441.977  57.9205  0.585970  11031.8  12040.5  13444.4  13012.5
  7517.108  7517.110  1.000  113.252  441.321  58.0248  0.592451  11024.4  12118.6  13650.6  13186.7
  7521.044  7521.050  1.000  112.764  440.754  58.1446  0.597563  11024.4  12003.5  13400.3  13272.9
  7525.009  7525.010  1.000  113.857  440.276  58.2578  0.601037  11146.3  12209.8  13622.6  13149.7
  7528.975  7528.980  1.000  113.555  439.707  58.3726  0.602051  10998  12085.6  13705.7  13141.6
  7532.975  7532.980  1.000  114.045  439.326  58.5147  0.603376  11028.4  12146.8  13759.8  13167.8
  7536.977  7536.990  1.000  115.373  438.695  58.629  0.607396  11146.4  12201.9  13795.9  13469.2
  7541.020  7541.030  1.000  114.193  438.115  58.7483  0.613407  10936.4  12051.6  13788.9  13252.9
  7545.067  7545.080  1.000  114.036  437.385  58.8349  0.619267  10972.3  12050.7  13654.6  13199.8
  7549.141  7549.150  1.000  114.151  436.396  58.8904  0.624050  11031.8  12050.7  13532.6  13199.8
  7553.239  7553.240  1.000  114.151  435.992  59.0486  0.625678  10955.5  12037.7  13534.6  13241
  7557.351  7557.350  1.000  115.665  435.438  59.1783  0.622985  11300.5  12193.9  13677.8  13192.9
  7561.477  7561.480  1.000  114.882  434.785  59.2779  0.620014  11046.5  12023.7  13552.7  13326.1
  7565.635  7565.630  1.000  115.374  434.413  59.4177  0.620767  10992  12203  13760.1  13165
  7569.790  7569.790  1.000  114.567  433.779  59.5336  0.626791  10930.2  11888.6  13719.9  13157.9
  7573.977  7573.980  1.000  116.52  433.054  59.6467  0.638442  11117.1  12375.2  13578.8  13388.3
  7578.183  7578.180  1.000  115.551  432.545  59.7619  0.655515  11229.2  12055.9  13562.8  13132.9
  7582.409  7582.410  1.000  115.427  431.919  59.8859  0.672750  11118.6  11961.7  13540.7  13234.1
  7586.650  7586.650  1.000  116.387  431.346  60.0006  0.686659  11110.2  12146.9  13631.8  13314.2
  7590.913  7590.910  1.000  116.268  430.407  60.0718  0.696692  11035.4  12146.9  13692  13168
  7595.185  7595.190  1.000  115.875  429.49  60.1479  0.702693  10859.2  12074.9  13786.1  13046.9
  7599.490  7599.490  1.000  116.119  428.481  60.203  0.705680  11188.3  11985.8  13446.7  13134
  7603.809  7603.810  1.000  115.951  426.38  60.1051  0.709061  10941.9  11960.8  13460.6  13075.9
  7608.151  7608.150  1.000  116.492  425.606  60.1966  0.717858  10960.8  12028  13463.7  13127
  7612.501  7612.510  1.000  116.735  424.718  60.2726  0.728508  10960.8  12028  13463.7  13127
  7616.880  7616.890  1.000  117.292  424.451  60.4324  0.738423  10871.4  12112.1  13604.9  13196.2
  7621.275  7621.280  1.000  117.532  424.45  60.6359  0.744053  11043.4  12088.1  13449.8  13305.3
  7625.694  7625.700  1.000  117.122  424.221  60.8112  0.747251  10933.6  12181.2  13383.7  13187.1
  7630.124  7630.130  1.000  118.079  423.564  60.9139  0.751790  11052.5  12187.3  13611  13163.2
  7634.575  7634.580  1.000  117.299  422.908  61.0387  0.761060  11017.6  12098.2  13467.9  13023
  7639.053  7639.050  1.000  118.139  422.186  61.142  0.773369  10820.7  12311.5  13610.1  13134.2
  7643.536  7643.540  1.000  118.241  421.502  61.2524  0.786526  11001  12242.5  13468  13127.2
  7648.050  7648.050  1.000  118.248  420.648  61.3304  0.797036  10956.6  11946  13512.9  13325.4
  7652.577  7652.580  1.000  117.921  419.764  61.3913  0.804893  10813.7  12131.3  13566.1  12988
  7657.131  7657.130  1.000  117.986  419.076  61.4994  0.811899  10901.9  11865.9  13527.1  13150.3
  7661.699  7661.700  1.000  119.345  418.311  61.5997  0.816864  10965.3  12182.4  13552.1  13223.4
  7666.275  7666.280  1.000  119.976  417.653  61.7164  0.819642  10930  12205.5  13565.2  13407.7
  7670.887  7670.890  1.000  119.749  416.871  61.8106  0.821424  10930  11905.1  13677.3  13407.7
  7675.500  7675.510  1.000  119.422  416.078  61.9065  0.823765  10907.9  12076.4  13539.1  13165.5
  7680.154  7680.160  1.000  120.219  415.346  62.001  0.826122  11073.6  12017.3  13646.3  13195.5
  7684.818  7684.820  1.000  120.213  414.213  62.0498  0.830822  10905  12088.3  13554.1  13246.5
  7689.499  7689.500  1.000  119.156  414.216  62.2645  0.841343  10959.6  11915.1  13555.3  12926.1
  7694.198  7694.200  1.000  120.595  413.333  62.3446  0.852507  10990.9  12028.3  13762.5  13064.3
  7698.913  7698.920  1.000  119.302  412.503  62.4346  0.863069  10846.1  11842  13489.1  13035.2
  7703.654  7703.660  1.000  120.621  411.456  62.489  0.873102  10903.4  11949.2  13601.3  13176.5
  7708.406  7708.410  1.000  120.865  410.427  62.5663  0.882950  10841.9  12085.5  13566.3  13112.4
  7713.188  7713.190  1.000  120.498  410.13  62.7198  0.896716  10887.7  11866.1  13425.2  13240.6
  7717.990  7717.990  1.000  120.56  409.139  62.7829  0.908539  10923.3  11919.3  13571.3  12912.1
  7722.804  7722.800  1.000  120.25  408.824  62.9544  0.921459  10830.4  11920.3  13442.2  12968.3
  7727.635  7727.630  1.000  119.701  407.888  63.024  0.930491  10903  11683  13384.2  12854.2
  7732.494  7732.490  1.000  120.53  407.025  63.104  0.938537  10786.9  11932.4  13385.2  12954.3
  7737.363  7737.360  1.000  120.366  406.174  63.1987  0.946486  10655.7  11986.4  13252  12995.4
  7742.243  7742.250  1.000  121.452  405.939  63.3825  0.956284  10937  11709.1  13542.5  13113.7
  7747.157  7747.160  1.000  121.646  405.134  63.4705  0.965422  10937  11895.3  13364.1  13086.5
  7752.076  7752.090  1.000  121.341  404.273  63.5554  0.973512  10821.7  11766.3  13426.4  13040.5