File: _static/March2024/BMM/Mn_Bixbyite.001
# XDI/1.0 BlueSky/1.11.0 BMM/2023-2.1-py310-tiled
# Beamline.name: BMM (06BM) -- Beamline for Materials Measurement (NIST)
# Beamline.xray_source: NSLS-II three-pole wiggler
# Beamline.collimation: paraboloid mirror, 5 nm Rh on 30 nm Pt
# Beamline.focusing: not in use
# Beamline.harmonic_rejection: flat mirror, Si stripe, pitch = 7.0 mrad relative to beam
# Beamline.software: Bluesky 1.11.0, Ophyd 1.8.0, DataBroker 2.0.0b23, Python 3.10.8, 2023-2.1-py310-tiled
# Detector.I0: 10 cm N2
# Detector.I1: 25 cm N2
# Detector.I2: 25 cm N2
# Element.symbol: Mn
# Element.edge: K
# Element.reference: Mn
# Element.reference_material: Mn metal powder
# Facility.name: NSLS-II
# Facility.energy: 3.0
# Facility.current: 400.9
# Facility.mode: top-off
# Facility.GUP: 315355
# Facility.SAF: 313563
# Facility.cycle: 2024-1
# Mono.name: Si(111)
# Mono.d_spacing: 3.13542
# Mono.encoder_resolution: 0.0000050 deg/ct
# Mono.angle_offset: 16.0892 deg
# Mono.scan_mode: pseudo channel cut
# Mono.scan_type: step
# Mono.direction: forward in energy
# Sample.name: Mn2O3
# Sample.prep: PEG pellet
# Sample.x: 90.051 mm
# Sample.y: 81.516 mm
# Sample.SDD_position: 205.000 mm
# Scan.experimenters: XAS course 2024
# Scan.edge_energy: 6539.0
# Scan.start_time: 2024-03-21T10:28:02
# Scan.end_time: 2024-03-21T10:34:47
# Scan.transient_id: 5297
# Scan.uid: 843205a1-829c-4f09-b925-a2a63e136868
# Scan.hdf5file: None
# Scan.plot_hint: ln(I0/It)  --  ln($5/$6)
# Column.1: energy eV
# Column.2: requested_energy eV
# Column.3: measurement_time seconds
# Column.4: xmu
# Column.5: I0 nA
# Column.6: It nA
# Column.7: Ir nA
# ///////////
# Welcome to BMM
# -----------
# energy  requested_energy  measurement_time  xmu  I0  It  Ir
  6339.034  6339.000  0.500  5.522697  211.162  0.843603  0.004341
  6348.995  6349.000  0.500  5.503142  211.464  0.861496  0.004410
  6359.013  6359.000  0.500  5.482522  211.582  0.879935  0.004698
  6369.018  6369.000  0.500  5.458900  211.485  0.900553  0.004557
  6379.018  6379.000  0.500  5.441205  211.979  0.918770  0.004765
  6389.012  6389.000  0.500  5.419745  212.02  0.938881  0.004810
  6399.011  6399.000  0.500  5.398613  212.11  0.959342  0.004953
  6409.014  6409.000  0.500  5.378017  212.24  0.979907  0.005250
  6419.012  6419.000  0.500  5.356837  212.381  1.001544  0.005557
  6429.008  6429.000  0.500  5.337373  212.456  1.021593  0.005576
  6439.004  6439.000  0.500  5.319324  212.699  1.041386  0.005854
  6449.005  6449.000  0.500  5.300174  212.039  1.058229  0.005916
  6459.000  6459.000  0.500  5.287206  211.075  1.067165  0.006230
  6468.999  6469.000  0.500  5.262359  213.007  1.104028  0.006406
  6479.005  6479.000  0.500  5.241596  212.958  1.126933  0.006547
  6489.009  6489.000  0.500  5.223588  213.195  1.148688  0.006657
  6499.016  6499.000  0.500  5.203469  213.094  1.171477  0.006612
  6509.014  6509.000  0.500  5.186210  213.276  1.192887  0.007002
  6511.007  6511.000  0.500  5.182199  213.225  1.197395  0.006943
  6512.999  6513.000  0.500  5.179185  213.316  1.201526  0.006830
  6514.998  6515.000  0.500  5.175292  213.26  1.205892  0.006841
  6517.001  6517.000  0.500  5.172608  213.291  1.209309  0.006892
  6518.997  6519.000  0.500  5.169341  213.448  1.214161  0.007077
  6520.999  6521.000  0.500  5.165995  213.5  1.218529  0.007018
  6523.001  6523.000  0.500  5.163521  213.536  1.221752  0.006882
  6525.003  6525.000  0.500  5.160255  213.453  1.225270  0.006877
  6526.999  6527.000  0.500  5.157206  213.453  1.229012  0.006831
  6528.999  6529.000  0.500  5.152609  213.319  1.233901  0.006704
  6529.288  6529.300  0.500  5.152465  213.354  1.234281  0.006773
  6529.582  6529.600  0.500  5.152926  213.408  1.234022  0.006715
  6529.885  6529.900  0.500  5.153063  213.459  1.234150  0.006669
  6530.183  6530.200  0.500  5.151390  213.362  1.235651  0.006858
  6530.486  6530.500  0.500  5.152280  213.417  1.234871  0.006298
  6530.786  6530.800  0.500  5.151320  213.373  1.235803  0.006592
  6531.085  6531.100  0.500  5.150767  213.398  1.236635  0.006741
  6531.387  6531.400  0.500  5.150095  213.321  1.237019  0.006740
  6531.686  6531.700  0.500  5.149905  213.377  1.237578  0.006705
  6531.988  6532.000  0.500  5.149232  213.349  1.238247  0.006344
  6532.288  6532.300  0.500  5.150258  213.483  1.237754  0.006719
  6532.587  6532.600  0.500  5.149907  213.435  1.237910  0.006598
  6532.887  6532.900  0.500  5.150409  213.546  1.237935  0.006279
  6533.189  6533.200  0.500  5.149519  213.493  1.238728  0.006373
  6533.487  6533.500  0.500  5.148243  213.398  1.239758  0.006232
  6533.792  6533.800  0.500  5.147379  213.352  1.240563  0.006412
  6534.092  6534.100  0.500  5.146390  213.282  1.241381  0.006212
  6534.396  6534.400  0.500  5.146455  213.256  1.241150  0.006137
  6534.696  6534.700  0.500  5.147170  213.402  1.241113  0.006050
  6534.996  6535.000  0.500  5.147705  213.418  1.240540  0.005987
  6535.298  6535.300  0.500  5.146330  213.271  1.241391  0.005927
  6535.596  6535.600  0.500  5.147414  213.411  1.240862  0.005760
  6535.898  6535.900  0.500  5.146466  213.31  1.241448  0.005792
  6536.194  6536.200  0.500  5.145925  213.266  1.241865  0.005404
  6536.491  6536.500  0.500  5.145533  213.205  1.241996  0.005090
  6536.793  6536.800  0.500  5.147841  213.399  1.240259  0.004779
  6537.095  6537.100  0.500  5.147801  213.323  1.239869  0.004703
  6537.397  6537.400  0.500  5.148149  213.254  1.239039  0.003937
  6537.697  6537.700  0.500  5.150537  213.289  1.236284  0.003334
  6537.997  6538.000  0.500  5.152919  213.256  1.233152  0.002661
  6538.294  6538.300  0.500  5.157830  213.309  1.227419  0.001831
  6538.600  6538.600  0.500  5.165823  213.425  1.218306  0.001368
  6538.897  6538.900  0.500  5.172210  213.327  1.209994  0.001134
  6539.197  6539.200  0.500  5.180376  213.51  1.201183  0.001178
  6539.494  6539.500  0.500  5.184251  213.413  1.195996  0.000745
  6539.796  6539.800  0.500  5.185997  213.332  1.193452  0.000648
  6540.099  6540.100  0.500  5.185281  213.249  1.193846  0.000575
  6540.399  6540.400  0.500  5.185403  213.294  1.193954  0.000584
  6540.702  6540.700  0.500  5.185919  213.267  1.193183  0.000450
  6541.002  6541.000  0.500  5.188764  213.301  1.189983  0.000408
  6541.303  6541.300  0.500  5.193003  213.386  1.185422  0.000505
  6541.600  6541.600  0.500  5.195895  213.364  1.181879  0.000299
  6541.899  6541.900  0.500  5.199512  213.446  1.178065  0.000286
  6542.198  6542.200  0.500  5.201135  213.423  1.176024  0.000546
  6542.495  6542.500  0.500  5.204052  213.458  1.172794  0.000331
  6542.794  6542.800  0.500  5.204899  213.336  1.171130  0.000461
  6543.096  6543.100  0.500  5.207095  213.353  1.168654  0.000271
  6543.399  6543.400  0.500  5.207383  213.23  1.167643  0.000304
  6543.700  6543.700  0.500  5.210126  213.266  1.164643  0.000321
  6544.004  6544.000  0.500  5.212288  213.26  1.162096  0.000361
  6544.300  6544.300  0.500  5.216230  213.255  1.157498  0.000502
  6544.606  6544.600  0.500  5.219988  213.223  1.152979  0.000102
  6544.898  6544.900  0.500  5.225851  213.293  1.146616  0.000247
  6545.199  6545.200  0.500  5.233819  213.355  1.137846  0.000056
  6545.495  6545.500  0.500  5.245090  213.431  1.125496  -0.000082
  6545.796  6545.800  0.500  5.256766  213.326  1.111884  0.000113
  6546.097  6546.100  0.500  5.273353  213.305  1.093483  0.000213
  6546.403  6546.400  0.500  5.294638  213.318  1.070520  0.000069
  6546.701  6546.700  0.500  5.318509  213.31  1.045232  0.000111
  6547.004  6547.000  0.500  5.342797  213.2  1.019622  0.000032
  6547.305  6547.300  0.500  5.371367  213.28  0.991277  -0.000034
  6547.603  6547.600  0.500  5.398831  213.217  0.964139  0.000069
  6547.899  6547.900  0.500  5.426244  213.204  0.938012  0.000099
  6548.198  6548.200  0.500  5.450143  213.19  0.915798  0.000002
  6548.499  6548.500  0.500  5.472367  213.09  0.895251  -0.000016
  6548.799  6548.800  0.500  5.499139  213.157  0.871874  0.000253
  6549.099  6549.100  0.500  5.526385  213.062  0.848062  -0.000097
  6549.400  6549.400  0.500  5.557950  213.201  0.822247  -0.000268
  6549.703  6549.700  0.500  5.588412  213.23  0.797684  -0.000261
  6550.006  6550.000  0.500  5.616462  213.192  0.775482  -0.000188
  6550.304  6550.300  0.500  5.641685  213.142  0.755989  0.000017
  6550.606  6550.600  0.500  5.666792  213.357  0.737990  -0.000063
  6550.902  6550.900  0.500  5.689091  213.301  0.721525  -0.000132
  6551.200  6551.200  0.500  5.714060  213.328  0.703824  0.000018
  6551.496  6551.500  0.500  5.738488  213.146  0.686250  0.000038
  6551.801  6551.800  0.500  5.767008  213.12  0.666876  -0.000284
  6552.098  6552.100  0.500  5.797794  213.16  0.646780  0.000118
  6552.399  6552.400  0.500  5.829921  213.092  0.626129  -0.000102
  6552.703  6552.700  0.500  5.866257  213.195  0.604080  0.000029
  6553.001  6553.000  0.500  5.902721  213.155  0.582340  -0.000164
  6553.303  6553.300  0.500  5.937277  213.06  0.562308  -0.000046
  6553.601  6553.600  0.500  5.971345  213.13  0.543653  -0.000287
  6553.899  6553.900  0.500  6.002001  213.123  0.527223  -0.000084
  6554.199  6554.200  0.500  6.030505  213.208  0.512612  -0.000230
  6554.499  6554.500  0.500  6.054033  213.028  0.500269  -0.000086
  6554.801  6554.800  0.500  6.075616  213.132  0.489827  0.000037
  6555.096  6555.100  0.500  6.091949  213.007  0.481608  -0.000081
  6555.403  6555.400  0.500  6.108068  213.113  0.474144  -0.000043
  6555.702  6555.700  0.500  6.117896  213.054  0.469376  0.000144
  6556.004  6556.000  0.500  6.125591  212.96  0.465572  -0.000335
  6556.301  6556.300  0.500  6.131906  213.1  0.462946  -0.000195
  6556.604  6556.600  0.500  6.134695  213.037  0.461520  -0.000249
  6556.903  6556.900  0.500  6.136851  213.044  0.460541  -0.000183
  6557.200  6557.200  0.500  6.138314  213.731  0.461350  0.000076
  6557.500  6557.500  0.500  6.139489  213.719  0.460783  -0.000082
  6557.801  6557.800  0.500  6.140573  213.637  0.460108  -0.000260
  6558.097  6558.100  0.500  6.141606  213.695  0.459757  0.000057
  6558.401  6558.400  0.500  6.139372  213.563  0.460502  -0.000043
  6558.702  6558.700  0.500  6.135715  213.457  0.461958  -0.000097
  6559.004  6559.000  0.500  6.130914  213.549  0.464381  -0.000131
  6559.305  6559.300  0.500  6.121657  213.47  0.468527  -0.000041
  6559.605  6559.600  0.500  6.111573  213.61  0.473586  -0.000072
  6559.906  6559.900  0.500  6.098723  213.599  0.479687  -0.000071
  6560.207  6560.200  0.500  6.084611  213.43  0.486120  -0.000049
  6560.504  6560.500  0.500  6.071510  213.182  0.491957  -0.000178
  6560.803  6560.800  0.500  6.059386  213.069  0.497693  -0.000108
  6561.103  6561.100  0.500  6.049005  213.029  0.502794  -0.000234
  6561.406  6561.400  0.500  6.039211  213.124  0.507967  0.000013
  6561.707  6561.700  0.500  6.036406  213.427  0.510119  -0.000059
  6562.009  6562.000  0.500  6.030559  213.354  0.512936  -0.000078
  6562.308  6562.300  0.500  6.029844  213.654  0.514024  -0.000184
  6562.609  6562.600  0.500  6.027047  213.583  0.515293  -0.000094
  6562.908  6562.900  0.500  6.022321  213.429  0.517360  -0.000048
  6563.206  6563.200  0.500  6.021491  213.571  0.518133  0.000088
  6563.503  6563.500  0.500  6.017583  213.432  0.519825  -0.000161
  6563.804  6563.800  0.500  6.014212  213.456  0.521637  -0.000138
  6564.002  6564.000  0.500  6.012009  213.489  0.522870  0.000001
  6565.003  6564.990  0.500  5.997177  213.3  0.530214  0.000182
  6566.008  6565.990  0.500  5.981456  213.563  0.539279  -0.000188
  6567.010  6567.010  0.500  5.963664  213.39  0.548515  -0.000307
  6568.048  6568.060  0.500  5.951011  213.433  0.555611  -0.000109
  6569.114  6569.120  0.500  5.943773  213.383  0.559514  -0.000094
  6570.202  6570.200  0.500  5.941273  213.376  0.560898  -0.000082
  6571.302  6571.300  0.500  5.940619  213.307  0.561082  -0.000134
  6572.422  6572.420  0.500  5.943256  213.413  0.559883  0.000061
  6573.564  6573.560  0.500  5.938240  213.337  0.562498  -0.000137
  6574.713  6574.710  0.500  5.926697  213.469  0.569382  -0.000138
  6575.904  6575.890  0.500  5.904439  213.472  0.582204  -0.000119
  6577.083  6577.080  0.500  5.876749  213.403  0.598356  -0.000161
  6578.306  6578.300  0.500  5.849986  213.496  0.614856  -0.000009
  6579.534  6579.530  0.500  5.824835  213.49  0.630499  0.000152
  6580.790  6580.780  0.500  5.801758  213.541  0.645371  0.000055
  6582.064  6582.050  0.500  5.779926  213.495  0.659474  -0.000083
  6583.352  6583.340  0.500  5.761994  213.392  0.671083  -0.000072
  6584.664  6584.650  0.500  5.750147  213.447  0.679256  -0.000140
  6585.992  6585.980  0.500  5.742954  213.428  0.684098  -0.000053
  6587.341  6587.330  0.500  5.736440  212.916  0.686916  0.000017
  6588.710  6588.700  0.500  5.735458  213.327  0.688920  -0.000179
  6590.092  6590.080  0.500  5.735795  213.329  0.688694  -0.000034
  6591.500  6591.490  0.500  5.738847  213.36  0.686696  -0.000042
  6592.922  6592.910  0.500  5.746458  213.355  0.681471  -0.000343
  6594.359  6594.350  0.500  5.759145  213.364  0.672911  -0.000186
  6595.821  6595.810  0.500  5.776259  213.475  0.661835  -0.000212
  6597.299  6597.290  0.500  5.792676  213.429  0.650918  0.000153
  6598.801  6598.790  0.500  5.803752  213.384  0.643613  -0.000041
  6600.316  6600.310  0.500  5.814573  213.453  0.636891  -0.000288
  6601.863  6601.850  0.500  5.824694  213.117  0.629486  -0.000128
  6603.418  6603.410  0.500  5.831372  213.436  0.626232  -0.000091
  6604.994  6604.980  0.500  5.831463  213.438  0.626179  -0.000176
  6606.585  6606.580  0.500  5.827451  213.325  0.628364  0.000101
  6608.207  6608.190  0.500  5.823380  213.421  0.631211  0.000085
  6609.835  6609.830  0.500  5.817773  213.475  0.634922  -0.000192
  6611.491  6611.480  0.500  5.810240  213.43  0.639589  -0.000342
  6613.162  6613.150  0.500  5.801034  213.406  0.645430  -0.000249
  6614.851  6614.840  0.500  5.793637  213.538  0.650625  -0.000271
  6616.566  6616.550  0.500  5.782233  213.349  0.657504  -0.000016
  6618.288  6618.280  0.500  5.775483  213.37  0.662024  -0.000058
  6620.042  6620.030  0.500  5.769900  213.451  0.665981  0.000043
  6621.792  6621.790  0.500  5.767660  213.515  0.667675  -0.000138
  6623.595  6623.580  0.500  5.765459  213.375  0.668708  0.000028
  6625.388  6625.380  0.500  5.768009  213.304  0.666784  -0.000051
  6627.216  6627.210  0.500  5.772530  213.488  0.664348  0.000034
  6629.059  6629.050  0.500  5.773620  213.086  0.662375  -0.000015
  6630.919  6630.910  0.500  5.773969  213.43  0.663211  -0.000057
  6632.801  6632.790  0.500  5.768813  213.29  0.666202  -0.000014
  6634.694  6634.690  0.500  5.766014  213.579  0.668975  -0.000054
  6636.616  6636.610  0.500  5.758238  213.421  0.673699  -0.000046
  6638.562  6638.550  0.500  5.754357  213.462  0.676451  -0.000038
  6640.525  6640.510  0.500  5.752732  213.496  0.677658  0.000010
  6642.484  6642.480  0.500  5.751874  213.59  0.678537  -0.000016
  6644.489  6644.480  0.500  5.748299  213.453  0.680530  0.000110
  6646.504  6646.490  0.500  5.744253  213.374  0.683038  -0.000219
  6648.532  6648.520  0.500  5.738236  213.38  0.687179  -0.000077
  6650.587  6650.580  0.500  5.728705  213.378  0.693752  -0.000001
  6652.657  6652.650  0.500  5.717078  213.449  0.702099  0.000104
  6654.756  6654.740  0.500  5.703193  213.451  0.711924  0.000110
  6656.860  6656.850  0.500  5.686616  213.335  0.723429  -0.000237
  6658.988  6658.980  0.500  5.674637  213.518  0.732777  -0.000207
  6661.129  6661.120  0.500  5.662456  213.537  0.741824  -0.000013
  6663.301  6663.290  0.500  5.651426  213.589  0.750232  -0.000197
  6665.482  6665.480  0.500  5.641292  213.449  0.757377  -0.000088
  6667.692  6667.680  0.500  5.638092  213.581  0.760274  -0.000130
  6669.912  6669.900  0.500  5.636378  213.506  0.761312  0.000037
  6672.155  6672.150  0.500  5.638366  213.485  0.759726  -0.000214
  6674.421  6674.410  0.500  5.640219  213.34  0.757803  -0.000121
  6676.702  6676.690  0.500  5.643163  213.33  0.755540  -0.000012
  6679.007  6678.990  0.500  5.645866  213.259  0.753248  -0.000193
  6681.321  6681.310  0.500  5.649515  213.346  0.750813  0.000004
  6683.657  6683.650  0.500  5.650218  213.299  0.750120  -0.000133
  6686.014  6686.000  0.500  5.648246  213.085  0.750846  0.000028
  6688.398  6688.380  0.500  5.649447  213.246  0.750513  -0.000106
  6690.773  6690.770  0.500  5.647051  213.15  0.751972  -0.000021
  6693.198  6693.190  0.500  5.644773  213.19  0.753829  -0.000269
  6695.632  6695.620  0.500  5.640750  213.249  0.757079  -0.000120
  6698.096  6698.070  0.500  5.633258  213.119  0.762305  0.000103
  6700.561  6700.550  0.500  5.627319  213.23  0.767245  -0.000079
  6703.048  6703.040  0.500  5.617466  213.13  0.774479  -0.000045
  6705.563  6705.550  0.500  5.608112  213.151  0.781834  -0.000008
  6708.090  6708.070  0.500  5.595853  213.021  0.790997  -0.000189
  6710.629  6710.620  0.500  5.587715  213.17  0.798018  -0.000324
  6713.203  6713.190  0.500  5.577470  213.009  0.805625  -0.000067
  6715.782  6715.770  0.500  5.570891  213.037  0.811050  -0.000002
  6718.393  6718.380  0.500  5.564661  212.822  0.815296  -0.000060
  6721.014  6721.000  0.500  5.564609  212.982  0.815950  -0.000142
  6723.649  6723.650  0.500  5.559883  212.875  0.819406  -0.000082
  6726.327  6726.310  0.500  5.555896  212.861  0.822624  0.000065
  6729.012  6728.990  0.500  5.551198  212.793  0.826234  -0.000242
  6731.709  6731.690  0.500  5.543610  212.575  0.831675  0.000162
  6734.406  6734.410  0.500  5.540380  212.664  0.834713  -0.000168
  6737.164  6737.150  0.500  5.538859  212.705  0.836146  -0.000103
  6739.900  6739.900  0.500  5.535028  212.65  0.839139  0.000007
  6742.700  6742.680  0.500  5.531175  212.474  0.841679  -0.000005
  6745.475  6745.470  0.500  5.527334  212.412  0.844673  -0.000008
  6748.295  6748.290  0.500  5.522778  212.32  0.848163  -0.000063
  6751.118  6751.120  0.500  5.518566  212.302  0.851669  -0.000051
  6753.985  6753.970  0.500  5.512242  212.189  0.856615  -0.000053
  6756.851  6756.850  0.500  5.504471  212.139  0.863094  -0.000012
  6759.764  6759.740  0.500  5.493797  211.961  0.871624  0.000093
  6762.652  6762.650  0.500  5.483918  211.936  0.880176  0.000080
  6765.574  6765.570  0.500  5.470543  211.756  0.891271  0.000109
  6768.532  6768.520  0.500  5.460660  211.71  0.899927  0.000093
  6771.490  6771.490  0.500  5.453862  211.723  0.906119  -0.000276
  6774.460  6774.470  0.500  5.446304  211.73  0.913025  -0.000047
  6777.480  6777.480  0.500  5.438422  211.609  0.919722  -0.000332
  6780.497  6780.500  0.500  5.430506  211.431  0.926253  0.000012
  6783.552  6783.550  0.500  5.423896  211.173  0.931257  -0.000212
  6786.623  6786.610  0.500  5.419517  211.013  0.934637  0.000084
  6789.686  6789.690  0.500  5.417298  210.946  0.936415  -0.000106
  6792.782  6792.790  0.500  5.411756  208.737  0.931757  0.000076
  6795.901  6795.910  0.500  5.408852  210.08  0.940479  -0.000107
  6799.060  6799.050  0.500  5.402870  210.546  0.948223  0.000025
  6802.191  6802.200  0.500  5.399425  210.579  0.951644  -0.000299
  6805.393  6805.380  0.500  5.394990  210.509  0.955556  -0.000120
  6808.565  6808.570  0.500  5.391990  210.452  0.958169  -0.000222
  6811.786  6811.790  0.500  5.379051  196.845  0.907887  0.000109
  6815.013  6815.020  0.500  5.382021  208.965  0.960932  -0.000253
  6818.260  6818.270  0.500  5.373617  209.928  0.973505  0.000165
  6821.545  6821.550  0.500  5.353792  206.834  0.978362  -0.000089
  6824.864  6824.840  0.500  5.358289  208.245  0.980618  -0.000075
  6828.148  6828.150  0.500  5.348585  208.816  0.992893  -0.000225
  6831.459  6831.470  0.500  5.340999  208.833  1.000539  -0.000195
  6834.812  6834.820  0.500  5.334858  208.598  1.005566  -0.000007
  6838.177  6838.190  0.500  5.327346  207.606  1.008329  -0.000190
  6841.566  6841.570  0.500  5.331557  194.062  0.938588  0.000079
  6844.967  6844.980  0.500  5.312043  207.646  1.024075  -0.000164
  6848.388  6848.400  0.500  5.308341  207.659  1.027938  -0.000109
  6851.833  6851.850  0.500  5.298975  207.355  1.036092  -0.000170
  6855.326  6855.310  0.500  5.294182  207.231  1.040450  0.000083
  6858.806  6858.790  0.500  5.286633  207.015  1.047240  -0.000019
  6862.281  6862.290  0.500  5.277097  206.198  1.053103  -0.000116
  6865.840  6865.810  0.500  5.271844  206.61  1.060765  0.000065
  6869.356  6869.350  0.500  5.264642  206.324  1.066952  0.000084
  6872.881  6872.900  0.500  5.255455  205.904  1.074608  -0.000195
  6876.467  6876.480  0.500  5.249156  205.757  1.080628  0.000228
  6880.067  6880.080  0.500  5.240716  205.404  1.087917  0.000052
  6883.683  6883.690  0.500  5.234943  205.233  1.093299  -0.000070
  6887.305  6887.320  0.500  5.226175  204.821  1.100719  0.000050
  6890.971  6890.980  0.500  5.221781  204.699  1.104905  -0.000091
  6894.631  6894.650  0.500  5.211403  204.235  1.113899  -0.000047
  6898.336  6898.340  0.500  5.207194  204.154  1.118156  -0.000137
  6902.036  6902.050  0.500  5.200133  203.796  1.124107  -0.000011
  6905.773  6905.780  0.500  5.190199  203.283  1.132471  0.000027
  6909.502  6909.520  0.500  5.181707  202.931  1.140152  -0.000231
  6913.282  6913.290  0.500  5.174630  202.575  1.146234  -0.000000
  6917.066  6917.080  0.500  5.166098  202.163  1.153703  -0.000187
  6920.865  6920.880  0.500  5.158120  201.668  1.160097  -0.000223
  6924.690  6924.710  0.500  5.150430  201.359  1.167258  0.000058
  6928.536  6928.550  0.500  5.140983  200.856  1.175397  0.000161
  6932.403  6932.410  0.500  5.131744  200.501  1.184208  -0.000329
  6936.280  6936.290  0.500  5.126506  200.329  1.189408  0.000007
  6940.190  6940.190  0.500  5.119349  199.941  1.195631  -0.000131
  6944.097  6944.110  0.500  5.111716  199.557  1.202477  -0.000036
  6948.041  6948.050  0.500  5.103767  199.123  1.209439  0.000013
  6951.998  6952.010  0.500  5.097266  198.806  1.215388  -0.000223
  6955.995  6955.980  0.500  5.087679  198.36  1.224342  -0.000069
  6959.986  6959.980  0.500  5.081681  197.983  1.229369  -0.000088
  6964.002  6963.990  0.500  5.072505  197.507  1.237717  0.000100
  6968.040  6968.030  0.500  5.067844  197.177  1.241423  -0.000122
  6972.098  6972.080  0.500  5.057116  196.736  1.252007  -0.000206
  6976.164  6976.150  0.500  5.050005  196.392  1.258738  0.000085
  6980.260  6980.240  0.500  5.042828  195.97  1.265079  0.000032
  6984.361  6984.350  0.500  5.034617  195.533  1.272664  -0.000308
  6988.491  6988.480  0.500  5.028835  195.235  1.278093  0.000100
  6992.645  6992.630  0.500  5.022271  194.938  1.284551  -0.000234
  6996.803  6996.790  0.500  5.013157  194.466  1.293178  -0.000202
  7000.996  7000.980  0.500  5.003984  194.06  1.302365  0.000039
  7005.172  7005.180  0.500  4.998150  193.864  1.308665  0.000079
  7009.426  7009.410  0.500  4.988179  193.411  1.318689  0.000207
  7013.642  7013.650  0.500  4.980176  193.05  1.326805  0.000194
  7017.915  7017.910  0.500  4.970577  192.61  1.336550  0.000046
  7022.181  7022.190  0.500  4.962360  192.225  1.344882  0.000149
  7026.478  7026.490  0.500  4.952485  191.847  1.355559  -0.000217
  7030.803  7030.810  0.500  4.942040  191.36  1.366315  0.000042
  7035.139  7035.150  0.500  4.934931  191.017  1.373598  -0.000134
  7039.501  7039.510  0.500  4.927132  190.535  1.380853  -0.000074
  7043.872  7043.890  0.500  4.920854  190.2  1.387108  -0.000044
  7048.259  7048.280  0.500  4.912062  189.729  1.395892  -0.000090
  7052.688  7052.700  0.500  4.904078  189.31  1.403974  -0.000137
  7057.117  7057.130  0.500  4.900088  189.073  1.407822  -0.000232
  7061.564  7061.580  0.500  4.887306  188.114  1.418704  0.000060
  7066.037  7066.050  0.500  4.881162  188.29  1.428782  0.000071
  7070.524  7070.540  0.500  4.878273  186.589  1.419969  0.000074
  7075.026  7075.050  0.500  4.866430  185.808  1.430873  -0.000082
  7079.560  7079.580  0.500  4.860299  187.037  1.449190  -0.000040
  7084.122  7084.130  0.500  4.852688  186.37  1.455062  0.000047
  7088.685  7088.700  0.500  4.846424  186.344  1.463994  -0.000096
  7093.270  7093.280  0.500  4.839172  186.042  1.472265  0.000124
  7097.869  7097.890  0.500  4.829884  185.703  1.483290  0.000114
  7102.491  7102.510  0.500  4.820766  185.279  1.493460  0.000062
  7107.150  7107.160  0.500  4.814776  184.988  1.500073  0.000012
  7111.802  7111.820  0.500  4.803798  184.337  1.511294  -0.000130
  7116.484  7116.500  0.500  4.796740  183.802  1.517584  0.000087
  7121.184  7121.200  0.500  4.789226  183.27  1.524604  -0.000024
  7125.903  7125.920  0.500  4.781020  182.742  1.532734  0.000244
  7130.641  7130.660  0.500  4.774024  182.065  1.537782  0.000035
  7135.392  7135.410  0.500  4.768089  181.692  1.543762  0.000183
  7140.172  7140.190  0.500  4.759554  181.383  1.554347  -0.000184
  7144.977  7144.990  0.500  4.751282  181.048  1.564364  -0.000076
  7149.783  7149.800  0.500  4.742898  180.818  1.575535  -0.000108
  7154.633  7154.630  0.500  4.734096  180.457  1.586290  -0.000131
  7159.470  7159.490  0.500  4.726876  180.164  1.595191  0.000065
  7164.342  7164.360  0.500  4.718552  179.735  1.604689  0.000164
  7169.231  7169.250  0.500  4.710182  179.321  1.614456  -0.000128
  7174.141  7174.160  0.500  4.702626  178.932  1.623164  0.000018
  7179.075  7179.090  0.500  4.692496  178.566  1.636341  0.000078