File: _static/March2024/BMM/Mn_Manganosite.001
# XDI/1.0 BlueSky/1.11.0 BMM/2023-2.1-py310-tiled
# Beamline.name: BMM (06BM) -- Beamline for Materials Measurement (NIST)
# Beamline.xray_source: NSLS-II three-pole wiggler
# Beamline.collimation: paraboloid mirror, 5 nm Rh on 30 nm Pt
# Beamline.focusing: not in use
# Beamline.harmonic_rejection: flat mirror, Si stripe, pitch = 7.0 mrad relative to beam
# Beamline.software: Bluesky 1.11.0, Ophyd 1.8.0, DataBroker 2.0.0b23, Python 3.10.8, 2023-2.1-py310-tiled
# Detector.I0: 10 cm N2
# Detector.I1: 25 cm N2
# Detector.I2: 25 cm N2
# Element.symbol: Mn
# Element.edge: K
# Element.reference: Mn
# Element.reference_material: Mn metal powder
# Facility.name: NSLS-II
# Facility.energy: 3.0
# Facility.current: 399.4
# Facility.mode: top-off
# Facility.GUP: 315355
# Facility.SAF: 313563
# Facility.cycle: 2024-1
# Mono.name: Si(111)
# Mono.d_spacing: 3.13542
# Mono.encoder_resolution: 0.0000050 deg/ct
# Mono.angle_offset: 16.0892 deg
# Mono.scan_mode: pseudo channel cut
# Mono.scan_type: step
# Mono.direction: forward in energy
# Sample.name: MnO
# Sample.prep: PEG pellet
# Sample.x: 90.630 mm
# Sample.y: 81.961 mm
# Sample.SDD_position: 205.000 mm
# Scan.experimenters: XAS course 2024
# Scan.edge_energy: 6539.0
# Scan.start_time: 2024-03-21T10:10:54
# Scan.end_time: 2024-03-21T10:17:44
# Scan.transient_id: 5285
# Scan.uid: 53dd7aaf-000a-47c7-a8ad-247a63687b4b
# Scan.hdf5file: None
# Scan.plot_hint: ln(I0/It)  --  ln($5/$6)
# Column.1: energy eV
# Column.2: requested_energy eV
# Column.3: measurement_time seconds
# Column.4: xmu
# Column.5: I0 nA
# Column.6: It nA
# Column.7: Ir nA
# ///////////
# Welcome to BMM
# -----------
# energy  requested_energy  measurement_time  xmu  I0  It  Ir
  6339.011  6339.000  0.500  5.449465  212.248  0.912369  0.004418
  6349.017  6349.000  0.500  5.428886  212.514  0.932506  0.004555
  6359.000  6359.000  0.500  5.408446  212.662  0.952427  0.004237
  6369.001  6369.000  0.500  5.386541  212.822  0.974253  0.004890
  6379.013  6379.000  0.500  5.366791  213.097  0.994969  0.005041
  6389.019  6389.000  0.500  5.345464  213.266  1.017221  0.005183
  6399.015  6399.000  0.500  5.326481  213.563  1.038162  0.005177
  6409.013  6409.000  0.500  5.306628  213.78  1.060055  0.005341
  6419.016  6419.000  0.500  5.286671  214.029  1.082679  0.005693
  6429.008  6429.000  0.500  5.267203  214.051  1.104081  0.005866
  6439.010  6439.000  0.500  5.248327  214.168  1.125732  0.005948
  6449.009  6449.000  0.500  5.228291  213.386  1.144320  0.006104
  6459.014  6459.000  0.500  5.217795  212.584  1.152048  0.006014
  6468.982  6469.000  0.500  5.183559  213.759  1.198763  0.006359
  6478.985  6479.000  0.500  5.154985  213.078  1.229580  0.006606
  6488.983  6489.000  0.500  5.138087  214.014  1.256026  0.006965
  6498.986  6499.000  0.500  5.120355  214.113  1.279091  0.006894
  6508.993  6509.000  0.500  5.103108  214.266  1.302271  0.007342
  6510.994  6511.000  0.500  5.099831  214.235  1.306360  0.007238
  6512.986  6513.000  0.500  5.096934  214.335  1.310759  0.007186
  6514.990  6515.000  0.500  5.094475  214.343  1.314033  0.007103
  6516.987  6517.000  0.500  5.090606  214.321  1.318996  0.007286
  6518.993  6519.000  0.500  5.086041  214.203  1.324300  0.007149
  6520.992  6521.000  0.500  5.083817  214.332  1.328045  0.007261
  6522.994  6523.000  0.500  5.080988  214.382  1.332122  0.007211
  6524.996  6525.000  0.500  5.079123  214.403  1.334737  0.007343
  6526.995  6527.000  0.500  5.076825  214.351  1.337485  0.007347
  6528.997  6529.000  0.500  5.076637  214.513  1.338747  0.007120
  6529.288  6529.300  0.500  5.074980  214.4  1.340259  0.006938
  6529.584  6529.600  0.500  5.074560  214.396  1.340800  0.007326
  6529.887  6529.900  0.500  5.075315  214.455  1.340152  0.007081
  6530.188  6530.200  0.500  5.075796  214.544  1.340068  0.007015
  6530.486  6530.500  0.500  5.075122  214.456  1.340421  0.007003
  6530.784  6530.800  0.500  5.075815  214.499  1.339759  0.006941
  6531.083  6531.100  0.500  5.075700  214.517  1.340023  0.006936
  6531.390  6531.400  0.500  5.074063  214.402  1.341505  0.006922
  6531.688  6531.700  0.500  5.075514  214.581  1.340675  0.006994
  6531.986  6532.000  0.500  5.074788  214.453  1.340851  0.006749
  6532.288  6532.300  0.500  5.076792  214.636  1.339308  0.006807
  6532.589  6532.600  0.500  5.075032  214.561  1.341196  0.006985
  6532.889  6532.900  0.500  5.075964  214.579  1.340056  0.006818
  6533.194  6533.200  0.500  5.075809  214.579  1.340264  0.006704
  6533.492  6533.500  0.500  5.075979  214.544  1.339822  0.006584
  6533.792  6533.800  0.500  5.076303  214.555  1.339458  0.006611
  6534.090  6534.100  0.500  5.076922  214.573  1.338737  0.006398
  6534.392  6534.400  0.500  5.076650  214.512  1.338722  0.006602
  6534.688  6534.700  0.500  5.077090  214.522  1.338193  0.006291
  6534.992  6535.000  0.500  5.078034  214.596  1.337396  0.006392
  6535.289  6535.300  0.500  5.076808  214.465  1.338219  0.006102
  6535.594  6535.600  0.500  5.077353  214.462  1.337469  0.006113
  6535.891  6535.900  0.500  5.078235  214.507  1.336571  0.005941
  6536.198  6536.200  0.500  5.079965  214.567  1.334631  0.005516
  6536.494  6536.500  0.500  5.080013  214.55  1.334463  0.005433
  6536.793  6536.800  0.500  5.082104  214.633  1.332191  0.005168
  6537.095  6537.100  0.500  5.082571  214.509  1.330800  0.004679
  6537.395  6537.400  0.500  5.085566  214.635  1.327598  0.004162
  6537.694  6537.700  0.500  5.087652  214.582  1.324504  0.003324
  6537.994  6538.000  0.500  5.090526  214.588  1.320739  0.002588
  6538.294  6538.300  0.500  5.095892  214.635  1.313961  0.001648
  6538.596  6538.600  0.500  5.103365  214.628  1.304136  0.001498
  6538.899  6538.900  0.500  5.111599  214.589  1.293209  0.001167
  6539.201  6539.200  0.500  5.119057  214.544  1.283329  0.000753
  6539.499  6539.500  0.500  5.124786  214.65  1.276631  0.000710
  6539.798  6539.800  0.500  5.127519  214.614  1.272930  0.000617
  6540.100  6540.100  0.500  5.127154  214.472  1.272550  0.000665
  6540.399  6540.400  0.500  5.126680  214.43  1.272905  0.000467
  6540.698  6540.700  0.500  5.124790  214.413  1.275212  0.000372
  6540.998  6541.000  0.500  5.128041  214.609  1.272236  0.000511
  6541.296  6541.300  0.500  5.133829  214.651  1.265141  0.000427
  6541.593  6541.600  0.500  5.141195  214.552  1.255278  0.000233
  6541.895  6541.900  0.500  5.155341  214.517  1.237443  0.000406
  6542.196  6542.200  0.500  5.177764  214.678  1.210914  0.000332
  6542.497  6542.500  0.500  5.204928  214.476  1.177356  0.000199
  6542.801  6542.800  0.500  5.245029  214.696  1.132234  0.000367
  6543.102  6543.100  0.500  5.291698  214.668  1.080471  0.000387
  6543.404  6543.400  0.500  5.346104  214.558  1.022731  0.000025
  6543.700  6543.700  0.500  5.410423  214.611  0.959258  -0.000182
  6544.006  6544.000  0.500  5.477313  214.658  0.897388  0.000165
  6544.302  6544.300  0.500  5.538149  214.64  0.844353  0.000139
  6544.603  6544.600  0.500  5.593531  214.642  0.798869  0.000014
  6544.894  6544.900  0.500  5.636678  214.556  0.764827  0.000210
  6545.197  6545.200  0.500  5.673908  214.485  0.736630  0.000110
  6545.497  6545.500  0.500  5.704334  214.53  0.714705  -0.000173
  6545.796  6545.800  0.500  5.730277  214.651  0.696795  -0.000009
  6546.100  6546.100  0.500  5.753897  214.667  0.680581  0.000104
  6546.403  6546.400  0.500  5.777204  214.58  0.664633  -0.000005
  6546.701  6546.700  0.500  5.806123  214.627  0.645828  0.000053
  6547.004  6547.000  0.500  5.836002  214.601  0.626742  -0.000121
  6547.303  6547.300  0.500  5.868430  214.658  0.606905  -0.000181
  6547.601  6547.600  0.500  5.899909  214.56  0.587828  0.000022
  6547.902  6547.900  0.500  5.934860  214.611  0.567773  -0.000298
  6548.202  6548.200  0.500  5.972322  214.54  0.546717  -0.000010
  6548.503  6548.500  0.500  6.017113  214.499  0.522669  -0.000046
  6548.799  6548.800  0.500  6.072402  214.623  0.494840  -0.000147
  6549.102  6549.100  0.500  6.142320  214.628  0.461435  -0.000078
  6549.404  6549.400  0.500  6.221050  214.466  0.426179  -0.000070
  6549.700  6549.700  0.500  6.308575  214.611  0.390727  -0.000223
  6550.003  6550.000  0.500  6.383959  214.426  0.362042  -0.000153
  6550.303  6550.300  0.500  6.438634  214.431  0.342787  -0.000270
  6550.602  6550.600  0.500  6.476662  214.558  0.330191  -0.000229
  6550.900  6550.900  0.500  6.498879  214.467  0.322800  -0.000014
  6551.198  6551.200  0.500  6.515937  214.511  0.317405  -0.000103
  6551.498  6551.500  0.500  6.530495  214.487  0.312783  -0.000064
  6551.798  6551.800  0.500  6.545086  214.579  0.308384  -0.000331
  6552.098  6552.100  0.500  6.559815  214.487  0.303745  -0.000233
  6552.401  6552.400  0.500  6.579108  214.583  0.298074  -0.000113
  6552.696  6552.700  0.500  6.604356  214.591  0.290654  -0.000117
  6553.005  6553.000  0.500  6.636475  214.565  0.281432  -0.000279
  6553.301  6553.300  0.500  6.673341  214.559  0.271239  -0.000198
  6553.606  6553.600  0.500  6.710789  214.525  0.261228  0.000045
  6553.901  6553.900  0.500  6.736127  214.419  0.254567  -0.000177
  6554.207  6554.200  0.500  6.750215  214.523  0.251127  0.000077
  6554.503  6554.500  0.500  6.736852  214.493  0.254469  -0.000025
  6554.803  6554.800  0.500  6.697146  214.527  0.264819  -0.000114
  6555.096  6555.100  0.500  6.637220  214.534  0.281182  -0.000124
  6555.396  6555.400  0.500  6.562419  214.512  0.302990  -0.000022
  6555.695  6555.700  0.500  6.485102  214.518  0.327356  -0.000336
  6556.002  6556.000  0.500  6.407408  214.599  0.353937  -0.000302
  6556.301  6556.300  0.500  6.332670  214.464  0.381163  -0.000123
  6556.604  6556.600  0.500  6.265361  214.507  0.407784  -0.000172
  6556.905  6556.900  0.500  6.207889  214.567  0.432028  -0.000038
  6557.203  6557.200  0.500  6.158682  214.529  0.453738  -0.000361
  6557.506  6557.500  0.500  6.118241  214.471  0.472336  -0.000204
  6557.802  6557.800  0.500  6.086291  214.452  0.487628  -0.000328
  6558.101  6558.100  0.500  6.060403  214.427  0.500358  -0.000128
  6558.396  6558.400  0.500  6.037934  214.351  0.511544  -0.000239
  6558.695  6558.700  0.500  6.023680  214.39  0.518984  -0.000324
  6558.997  6559.000  0.500  6.011327  214.371  0.525388  -0.000122
  6559.305  6559.300  0.500  6.003730  214.462  0.529620  -0.000274
  6559.605  6559.600  0.500  5.998482  214.49  0.532476  -0.000075
  6559.906  6559.900  0.500  5.992195  214.512  0.535889  -0.000293
  6560.207  6560.200  0.500  5.986110  214.423  0.538936  -0.000147
  6560.504  6560.500  0.500  5.978888  214.273  0.542463  -0.000034
  6560.808  6560.800  0.500  5.970276  214.084  0.546671  -0.000186
  6561.105  6561.100  0.500  5.961775  214.071  0.551304  -0.000119
  6561.402  6561.400  0.500  5.951968  214.173  0.557004  0.000061
  6561.699  6561.700  0.500  5.944351  214.399  0.561854  -0.000016
  6562.004  6562.000  0.500  5.936968  214.349  0.565885  -0.000274
  6562.297  6562.300  0.500  5.933637  214.427  0.567981  -0.000234
  6562.607  6562.600  0.500  5.931728  214.555  0.569406  -0.000292
  6562.903  6562.900  0.500  5.931045  214.447  0.569509  -0.000101
  6563.206  6563.200  0.500  5.931546  214.366  0.569008  0.000054
  6563.501  6563.500  0.500  5.935222  214.405  0.567024  -0.000216
  6563.802  6563.800  0.500  5.941597  214.503  0.563677  -0.000284
  6564.003  6564.000  0.500  5.944841  214.327  0.561391  -0.000162
  6565.001  6564.990  0.500  5.985128  214.516  0.539698  -0.000290
  6566.004  6565.990  0.500  6.049964  214.475  0.505720  -0.000149
  6567.021  6567.010  0.500  6.115239  214.455  0.473719  -0.000196
  6568.077  6568.060  0.500  6.130828  214.486  0.466460  -0.000215
  6569.138  6569.120  0.500  6.091560  214.503  0.485179  0.000039
  6570.199  6570.200  0.500  6.027286  214.294  0.516883  -0.000327
  6571.296  6571.300  0.500  5.966024  214.36  0.549708  -0.000146
  6572.425  6572.420  0.500  5.928801  214.311  0.570426  -0.000088
  6573.564  6573.560  0.500  5.917173  214.341  0.577178  -0.000188
  6574.715  6574.710  0.500  5.915812  214.288  0.577821  -0.000004
  6575.893  6575.890  0.500  5.917339  214.368  0.577155  0.000043
  6577.085  6577.080  0.500  5.915347  214.373  0.578320  -0.000060
  6578.306  6578.300  0.500  5.906867  215.244  0.585613  -0.000041
  6579.541  6579.530  0.500  5.898268  215.128  0.590354  -0.000313
  6580.790  6580.780  0.500  5.900821  215.159  0.588932  -0.000139
  6582.055  6582.050  0.500  5.910430  215.206  0.583428  0.000131
  6583.352  6583.340  0.500  5.923141  215.059  0.575666  -0.000248
  6584.653  6584.650  0.500  5.937587  215.057  0.567405  -0.000096
  6585.986  6585.980  0.500  5.946446  215.239  0.562874  -0.000215
  6587.338  6587.330  0.500  5.952911  214.83  0.558186  -0.000105
  6588.705  6588.700  0.500  5.983215  215.042  0.542060  -0.000005
  6590.094  6590.080  0.500  6.039838  215.065  0.512272  -0.000230
  6591.491  6591.490  0.500  6.101128  215.13  0.481963  -0.000157
  6592.924  6592.910  0.500  6.149880  215.035  0.458828  -0.000025
  6594.359  6594.350  0.500  6.178891  215.041  0.445721  0.000044
  6595.824  6595.810  0.500  6.182809  215.098  0.444095  -0.000029
  6597.303  6597.290  0.500  6.173145  215.06  0.448329  -0.000110
  6598.797  6598.790  0.500  6.164143  215.03  0.452319  -0.000098
  6600.319  6600.310  0.500  6.140014  214.99  0.463281  -0.000220
  6601.861  6601.850  0.500  6.097968  214.682  0.482482  -0.000073
  6603.418  6603.410  0.500  6.054800  214.947  0.504390  -0.000137
  6604.992  6604.980  0.500  6.019669  215.092  0.522776  -0.000270
  6606.591  6606.580  0.500  5.990459  215.14  0.538391  -0.000190
  6608.198  6608.190  0.500  5.970457  215.108  0.549186  -0.000256
  6609.840  6609.830  0.500  5.954970  215.102  0.557742  -0.000205
  6611.486  6611.480  0.500  5.931679  215.171  0.571069  -0.000115
  6613.163  6613.150  0.500  5.903899  215.169  0.587150  -0.000191
  6614.855  6614.840  0.500  5.881272  215.133  0.600486  -0.000125
  6616.558  6616.550  0.500  5.869510  215.158  0.607663  -0.000189
  6618.294  6618.280  0.500  5.871107  215.144  0.606653  -0.000109
  6620.040  6620.030  0.500  5.883590  215.008  0.598748  -0.000239
  6621.807  6621.790  0.500  5.905595  214.928  0.585500  -0.000197
  6623.590  6623.580  0.500  5.926650  215.004  0.573502  -0.000167
  6625.394  6625.380  0.500  5.934718  215.016  0.568924  -0.000194
  6627.222  6627.210  0.500  5.929814  215.128  0.572021  -0.000230
  6629.063  6629.050  0.500  5.917579  214.772  0.578103  -0.000076
  6630.922  6630.910  0.500  5.910742  215.184  0.583185  -0.000205
  6632.801  6632.790  0.500  5.905553  215.118  0.586042  0.000079
  6634.702  6634.690  0.500  5.906803  215.068  0.585173  -0.000151
  6636.622  6636.610  0.500  5.918404  215.067  0.578420  0.000008
  6638.562  6638.550  0.500  5.940300  215.039  0.565819  -0.000242
  6640.525  6640.510  0.500  5.962921  214.979  0.553010  -0.000178
  6642.489  6642.480  0.500  5.971784  214.903  0.547934  -0.000144
  6644.492  6644.480  0.500  5.964412  214.972  0.552168  -0.000047
  6646.508  6646.490  0.500  5.944875  215.095  0.563382  -0.000098
  6648.528  6648.520  0.500  5.920496  215.115  0.577341  -0.000240
  6650.595  6650.580  0.500  5.891964  215.184  0.594240  -0.000078
  6652.661  6652.650  0.500  5.860010  215.039  0.613124  -0.000302
  6654.752  6654.740  0.500  5.830814  215  0.631174  -0.000239
  6656.860  6656.850  0.500  5.813625  215.037  0.642226  0.000060
  6658.992  6658.980  0.500  5.814996  214.97  0.641146  -0.000104
  6661.129  6661.120  0.500  5.838190  215.072  0.626743  -0.000176
  6663.299  6663.290  0.500  5.867961  215.116  0.608484  -0.000157
  6665.497  6665.480  0.500  5.890335  214.983  0.594653  -0.000031
  6667.692  6667.680  0.500  5.901327  215.098  0.588467  0.000001
  6669.914  6669.900  0.500  5.890886  214.944  0.594220  -0.000191
  6672.159  6672.150  0.500  5.872238  214.951  0.605422  -0.000202
  6674.421  6674.410  0.500  5.852050  214.916  0.617669  0.000031
  6676.698  6676.690  0.500  5.839062  214.94  0.625813  0.000040
  6679.001  6678.990  0.500  5.836197  214.95  0.627639  -0.000018
  6681.315  6681.310  0.500  5.840619  215.049  0.625158  -0.000317
  6683.659  6683.650  0.500  5.842455  214.987  0.623830  -0.000040
  6686.016  6686.000  0.500  5.845745  214.907  0.621549  -0.000288
  6688.388  6688.380  0.500  5.852534  214.923  0.617391  -0.000184
  6690.777  6690.770  0.500  5.857534  214.983  0.614483  -0.000007
  6693.202  6693.190  0.500  5.855057  214.914  0.615810  -0.000167
  6695.632  6695.620  0.500  5.846594  215.022  0.621355  -0.000188
  6698.077  6698.070  0.500  5.830009  214.921  0.631450  -0.000380
  6700.564  6700.550  0.500  5.807076  214.877  0.645966  -0.000185
  6703.055  6703.040  0.500  5.779557  214.8  0.663750  -0.000260
  6705.559  6705.550  0.500  5.752503  214.905  0.682287  -0.000154
  6708.083  6708.070  0.500  5.727706  214.85  0.699235  -0.000171
  6710.634  6710.620  0.500  5.706941  214.589  0.713040  -0.000185
  6713.201  6713.190  0.500  5.699507  214.702  0.718741  -0.000027
  6715.778  6715.770  0.500  5.699319  214.6  0.718533  0.000099
  6718.388  6718.380  0.500  5.711305  214.672  0.710211  -0.000075
  6721.016  6721.000  0.500  5.723107  214.608  0.701670  -0.000210
  6723.660  6723.650  0.500  5.734500  214.643  0.693834  -0.000172
  6726.312  6726.310  0.500  5.742269  214.605  0.688343  -0.000103
  6729.010  6728.990  0.500  5.744079  214.386  0.686394  -0.000003
  6731.707  6731.690  0.500  5.745653  214.373  0.685273  0.000058
  6734.431  6734.410  0.500  5.742978  214.359  0.687064  -0.000055
  6737.159  6737.150  0.500  5.736643  214.236  0.691034  -0.000172
  6739.914  6739.900  0.500  5.732260  214.296  0.694266  0.000005
  6742.696  6742.680  0.500  5.725820  214.133  0.698220  -0.000220
  6745.473  6745.470  0.500  5.717885  214.058  0.703536  -0.000108
  6748.291  6748.290  0.500  5.709591  213.955  0.709054  -0.000151
  6751.135  6751.120  0.500  5.703474  213.875  0.713138  -0.000111
  6753.985  6753.970  0.500  5.695529  213.869  0.718805  -0.000237
  6756.857  6756.850  0.500  5.683642  213.842  0.727308  0.000061
  6759.754  6759.740  0.500  5.672757  213.772  0.735029  -0.000138
  6762.644  6762.650  0.500  5.661452  213.547  0.742602  -0.000293
  6765.591  6765.570  0.500  5.657263  213.525  0.745642  -0.000254
  6768.526  6768.520  0.500  5.654180  213.462  0.747725  -0.000192
  6771.488  6771.490  0.500  5.645884  213.316  0.753438  -0.000292
  6774.497  6774.470  0.500  5.636576  213.321  0.760501  -0.000145
  6777.476  6777.480  0.500  5.621554  213.176  0.771486  -0.000115
  6780.501  6780.500  0.500  5.608910  213.149  0.781203  0.000055
  6783.554  6783.550  0.500  5.597146  212.905  0.789544  -0.000104
  6786.608  6786.610  0.500  5.591181  212.86  0.794098  -0.000203
  6789.689  6789.690  0.500  5.587449  212.683  0.796406  -0.000058
  6792.782  6792.790  0.500  5.579969  210.396  0.793759  -0.000003
  6795.911  6795.910  0.500  5.577293  211.432  0.799804  -0.000287
  6799.050  6799.050  0.500  5.579124  212.098  0.800855  -0.000153
  6802.193  6802.200  0.500  5.579661  212.088  0.800387  -0.000311
  6805.379  6805.380  0.500  5.578432  212.002  0.801046  -0.000222
  6808.563  6808.570  0.500  5.573460  211.847  0.804452  -0.000195
  6811.786  6811.790  0.500  5.557972  198.229  0.764487  -0.000044
  6815.017  6815.020  0.500  5.564821  210.495  0.806250  0.000000
  6818.262  6818.270  0.500  5.558090  210.931  0.813379  -0.000210
  6821.566  6821.550  0.500  5.537976  207.837  0.817733  -0.000228
  6824.849  6824.840  0.500  5.537340  209.186  0.823563  -0.000140
  6828.174  6828.150  0.500  5.524853  209.796  0.836342  0.000162
  6831.469  6831.470  0.500  5.513004  209.68  0.845844  -0.000056
  6834.842  6834.820  0.500  5.505852  209.385  0.850716  -0.000171
  6838.185  6838.190  0.500  5.503599  208.718  0.849917  -0.000026
  6841.566  6841.570  0.500  5.503293  194.42  0.791940  -0.000049
  6844.973  6844.980  0.500  5.489757  208.538  0.861022  -0.000026
  6848.394  6848.400  0.500  5.483332  208.449  0.866203  -0.000110
  6851.844  6851.850  0.500  5.474249  208.301  0.873484  -0.000139
  6855.298  6855.310  0.500  5.464994  208.028  0.880449  -0.000040
  6858.794  6858.790  0.500  5.456444  207.729  0.886733  0.000056
  6862.279  6862.290  0.500  5.454010  207.183  0.886558  0.000082
  6865.820  6865.810  0.500  5.448267  207.429  0.892726  -0.000118
  6869.338  6869.350  0.500  5.441894  207.063  0.896845  0.000078
  6872.883  6872.900  0.500  5.439419  206.879  0.898271  -0.000391
  6876.491  6876.480  0.500  5.432414  206.48  0.902839  -0.000089
  6880.069  6880.080  0.500  5.427909  206.211  0.905734  -0.000129
  6883.683  6883.690  0.500  5.422734  206.041  0.909683  -0.000259
  6887.311  6887.320  0.500  5.418375  205.779  0.912494  -0.000003
  6890.981  6890.980  0.500  5.409984  205.472  0.918813  -0.000103
  6894.645  6894.650  0.500  5.397993  205.131  0.928353  -0.000063
  6898.334  6898.340  0.500  5.386389  204.867  0.937981  -0.000094
  6902.038  6902.050  0.500  5.374898  204.508  0.947156  -0.000148
  6905.773  6905.780  0.500  5.365370  204.245  0.954996  -0.000234
  6909.510  6909.520  0.500  5.352608  203.713  0.964740  0.000023
  6913.286  6913.290  0.500  5.346907  203.31  0.968335  0.000027
  6917.068  6917.080  0.500  5.341215  202.948  0.972129  -0.000118
  6920.871  6920.880  0.500  5.335465  202.52  0.975674  -0.000160
  6924.700  6924.710  0.500  5.327589  202.089  0.981296  -0.000203
  6928.544  6928.550  0.500  5.318720  201.671  0.987992  -0.000186
  6932.401  6932.410  0.500  5.310572  201.253  0.994006  -0.000271
  6936.288  6936.290  0.500  5.300936  200.809  1.001418  -0.000094
  6940.184  6940.190  0.500  5.292731  200.491  1.008068  0.000007
  6944.105  6944.110  0.500  5.284697  200.177  1.014610  0.000042
  6948.045  6948.050  0.500  5.275931  199.717  1.021193  -0.000075
  6952.015  6952.010  0.500  5.269353  199.315  1.025864  -0.000234
  6955.974  6955.980  0.500  5.260863  198.899  1.032450  -0.000105
  6959.975  6959.980  0.500  5.252929  198.516  1.038668  -0.000105
  6963.986  6963.990  0.500  5.246372  198.18  1.043735  -0.000103
  6968.015  6968.030  0.500  5.243549  197.914  1.045276  0.000044
  6972.076  6972.080  0.500  5.237632  197.655  1.050105  -0.000163
  6976.140  6976.150  0.500  5.225640  197.723  1.063138  -0.000012
  6980.239  6980.240  0.500  5.215547  197.25  1.071356  -0.000071
  6984.350  6984.350  0.500  5.207829  196.906  1.077776  0.000058
  6988.479  6988.480  0.500  5.199208  196.597  1.085398  -0.000213
  6992.623  6992.630  0.500  5.188988  196.172  1.094178  -0.000168
  6996.788  6996.790  0.500  5.179782  195.779  1.102085  -0.000197
  7000.971  7000.980  0.500  5.168469  195.326  1.112047  -0.000121
  7005.197  7005.180  0.500  5.159348  194.886  1.119709  0.000141
  7009.426  7009.410  0.500  5.153067  194.499  1.124526  0.000062
  7013.646  7013.650  0.500  5.143863  194.031  1.132192  -0.000026
  7017.905  7017.910  0.500  5.135718  193.627  1.139071  -0.000146
  7022.175  7022.190  0.500  5.127319  193.229  1.146318  -0.000011
  7026.475  7026.490  0.500  5.120431  192.881  1.152165  -0.000099
  7030.796  7030.810  0.500  5.110283  192.317  1.160514  -0.000063
  7035.139  7035.150  0.500  5.104238  191.968  1.165430  0.000106
  7039.505  7039.510  0.500  5.092512  191.496  1.176276  -0.000052
  7043.876  7043.890  0.500  5.085626  191.08  1.181830  -0.000107
  7048.264  7048.280  0.500  5.080202  190.776  1.186369  -0.000229
  7052.692  7052.700  0.500  5.070161  190.272  1.195174  -0.000080
  7057.117  7057.130  0.500  5.063654  189.985  1.201163  -0.000002
  7061.564  7061.580  0.500  5.054595  189.113  1.206529  -0.000178
  7066.035  7066.050  0.500  5.048169  189.294  1.215475  -0.000066
  7070.519  7070.540  0.500  5.039324  187.343  1.213633  -0.000048
  7075.039  7075.050  0.500  5.026887  186.866  1.225688  0.000091
  7079.567  7079.580  0.500  5.018092  188.092  1.244629  -0.000166
  7084.124  7084.130  0.500  5.012798  187.5  1.247300  -0.000072
  7088.685  7088.700  0.500  5.004979  187.323  1.255906  -0.000039
  7093.265  7093.280  0.500  4.994730  186.828  1.265489  -0.000009
  7097.871  7097.890  0.500  4.983830  186.412  1.276509  -0.000007
  7102.498  7102.510  0.500  4.977138  186.106  1.282972  -0.000053
  7107.141  7107.160  0.500  4.968895  185.716  1.290882  -0.000013
  7111.807  7111.820  0.500  4.962262  185.304  1.296591  -0.000348
  7116.487  7116.500  0.500  4.954157  184.769  1.303364  -0.000089
  7121.190  7121.200  0.500  4.948671  184.294  1.307167  -0.000251
  7125.903  7125.920  0.500  4.943392  183.767  1.310329  0.000094
  7130.641  7130.660  0.500  4.932922  183.019  1.318727  -0.000092
  7135.392  7135.410  0.500  4.925424  182.64  1.325905  -0.000143
  7140.174  7140.190  0.500  4.913816  182.217  1.338276  -0.000054
  7144.971  7144.990  0.500  4.903934  181.862  1.348935  -0.000226
  7149.779  7149.800  0.500  4.898099  181.72  1.355764  0.000134
  7154.618  7154.630  0.500  4.888719  181.316  1.365506  0.000082
  7159.476  7159.490  0.500  4.881957  181.072  1.372920  -0.000060
  7164.337  7164.360  0.500  4.874395  180.746  1.380851  0.000058
  7169.233  7169.250  0.500  4.863759  180.231  1.391633  0.000140
  7174.145  7174.160  0.500  4.856652  179.881  1.398839  -0.000129
  7179.082  7179.090  0.500  4.846842  179.55  1.410029  -0.000038