File: _static/March2024/BMM/Zn_Hardystonite.001
# XDI/1.0 BlueSky/1.11.0 BMM/2023-2.1-py310-tiled
# Beamline.name: BMM (06BM) -- Beamline for Materials Measurement (NIST)
# Beamline.xray_source: NSLS-II three-pole wiggler
# Beamline.collimation: paraboloid mirror, 5 nm Rh on 30 nm Pt
# Beamline.focusing: not in use
# Beamline.harmonic_rejection: flat mirror, Pt stripe, pitch = 7.0 mrad relative to beam
# Beamline.software: Bluesky 1.11.0, Ophyd 1.8.0, DataBroker 2.0.0b23, Python 3.10.8, 2023-2.1-py310-tiled
# Detector.I0: 10 cm N2
# Detector.I1: 25 cm N2
# Detector.I2: 25 cm N2
# Element.symbol: Zn
# Element.edge: K
# Element.reference: Zn
# Element.reference_material: Zn foil
# Facility.name: NSLS-II
# Facility.energy: 3.0
# Facility.current: 400.0
# Facility.mode: top-off
# Facility.GUP: 315355
# Facility.SAF: 313563
# Facility.cycle: 2024-1
# Mono.name: Si(111)
# Mono.d_spacing: 3.13542
# Mono.encoder_resolution: 0.0000050 deg/ct
# Mono.angle_offset: 16.0892 deg
# Mono.scan_mode: pseudo channel cut
# Mono.scan_type: step
# Mono.direction: forward in energy
# Sample.name: Ca2ZnSi2O7
# Sample.prep: powder on tape
# Sample.x: 113.234 mm
# Sample.y: 81.177 mm
# Sample.SDD_position: 205.000 mm
# Scan.experimenters: Bruce Ravel
# Scan.edge_energy: 9658.6
# Scan.start_time: 2024-03-21T14:09:20
# Scan.end_time: 2024-03-21T14:16:15
# Scan.transient_id: 5340
# Scan.uid: 3fab0e22-d604-4ebd-b8ac-760ec556b88b
# Scan.hdf5file: None
# Scan.plot_hint: ln(I0/It)  --  ln($5/$6)
# Column.1: energy eV
# Column.2: requested_energy eV
# Column.3: measurement_time seconds
# Column.4: xmu
# Column.5: I0 nA
# Column.6: It nA
# Column.7: Ir nA
# ///////////
# sample courtesy Martin Stennett, University of Sheffield
# -----------
# energy  requested_energy  measurement_time  xmu  I0  It  Ir
  9458.636  9458.600  0.500  2.314887  195.827  19.3433  10.0139
  9468.629  9468.600  0.500  2.308206  195.432  19.4337  10.0824
  9478.632  9478.600  0.500  2.301933  194.865  19.4992  10.1409
  9488.653  9488.600  0.500  2.295502  194.318  19.57  10.201
  9498.621  9498.600  0.500  2.289130  193.904  19.6531  10.2682
  9508.658  9508.600  0.500  2.282908  193.428  19.7272  10.33
  9518.626  9518.600  0.500  2.276475  192.844  19.7946  10.3897
  9528.631  9528.600  0.500  2.270242  192.377  19.8701  10.4532
  9538.619  9538.600  0.500  2.264035  191.928  19.9471  10.5148
  9548.632  9548.600  0.500  2.257873  191.446  20.02  10.5768
  9558.627  9558.600  0.500  2.251640  190.869  20.0845  10.6361
  9568.612  9568.600  0.500  2.245784  190.347  20.1471  10.6938
  9578.622  9578.600  0.500  2.239681  189.979  20.2314  10.7582
  9588.618  9588.600  0.500  2.233730  189.53  20.304  10.8178
  9598.576  9598.600  0.500  2.228296  189.004  20.3579  10.8679
  9609.021  9608.600  0.500  2.222480  188.804  20.455  10.9348
  9618.586  9618.600  0.500  2.217796  188.139  20.4787  10.9674
  9628.584  9628.600  0.500  2.213376  187.775  20.5296  11.0054
  9630.582  9630.600  0.500  2.212709  187.692  20.5342  11.0104
  9632.578  9632.600  0.500  2.211977  187.563  20.5352  11.0112
  9634.570  9634.600  0.500  2.211441  187.237  20.5104  11.0017
  9636.568  9636.600  0.500  2.210807  187.24  20.5238  11.0038
  9638.566  9638.600  0.500  2.210527  187.147  20.5193  11.0024
  9640.569  9640.600  0.500  2.210249  187.195  20.5303  11.0012
  9642.569  9642.600  0.500  2.210261  187.056  20.5148  10.9884
  9644.574  9644.600  0.500  2.210753  186.84  20.481  10.9672
  9646.575  9646.600  0.500  2.211373  186.823  20.4664  10.9483
  9648.574  9648.600  0.500  2.212539  186.317  20.3873  10.891
  9648.867  9648.900  0.500  2.212612  186.254  20.3789  10.8827
  9649.161  9649.200  0.500  2.212985  186.221  20.3677  10.8765
  9649.458  9649.500  0.500  2.213250  186.416  20.3836  10.8798
  9649.760  9649.800  0.500  2.213569  186.423  20.3778  10.8745
  9650.058  9650.100  0.500  2.213870  186.653  20.3969  10.8774
  9650.372  9650.400  0.500  2.214246  186.536  20.3764  10.8641
  9650.665  9650.700  0.500  2.214435  186.649  20.3849  10.8615
  9650.963  9651.000  0.500  2.214864  186.457  20.3552  10.8433
  9651.265  9651.300  0.500  2.215327  186.501  20.3506  10.8381
  9651.575  9651.600  0.500  2.215680  186.463  20.3393  10.8259
  9651.877  9651.900  0.500  2.216182  186.552  20.3387  10.8201
  9652.174  9652.200  0.500  2.216767  186.403  20.3106  10.802
  9652.476  9652.500  0.500  2.217248  187.007  20.3666  10.8245
  9652.778  9652.800  0.500  2.217846  187.026  20.3565  10.8139
  9653.084  9653.100  0.500  2.218487  186.958  20.3361  10.7962
  9653.382  9653.400  0.500  2.219127  187.015  20.3292  10.7843
  9653.680  9653.700  0.500  2.219743  186.842  20.2979  10.7617
  9653.990  9654.000  0.500  2.220595  186.898  20.2868  10.7471
  9654.284  9654.300  0.500  2.221279  186.813  20.2637  10.7263
  9654.594  9654.600  0.500  2.222102  186.991  20.2662  10.7134
  9654.884  9654.900  0.500  2.222964  186.915  20.2406  10.6907
  9655.198  9655.200  0.500  2.224109  186.857  20.2112  10.6645
  9655.492  9655.500  0.500  2.224982  186.87  20.1949  10.6399
  9655.794  9655.800  0.500  2.226256  186.758  20.1571  10.609
  9656.096  9656.100  0.500  2.227455  186.802  20.1378  10.5769
  9656.382  9656.400  0.500  2.228794  186.832  20.114  10.548
  9656.700  9656.700  0.500  2.230322  186.839  20.0841  10.51
  9656.983  9657.000  0.500  2.231801  186.81  20.0513  10.4724
  9657.289  9657.300  0.500  2.233442  186.764  20.0135  10.4271
  9657.587  9657.600  0.500  2.235453  186.71  19.9674  10.3761
  9657.877  9657.900  0.500  2.237520  186.777  19.9334  10.3278
  9658.183  9658.200  0.500  2.239720  186.586  19.8692  10.2584
  9658.482  9658.500  0.500  2.242120  186.731  19.837  10.1947
  9658.792  9658.800  0.500  2.245018  186.689  19.7752  10.1091
  9659.086  9659.100  0.500  2.248045  186.638  19.71  10.0142
  9659.392  9659.400  0.500  2.251510  186.584  19.6362  9.897937
  9659.691  9659.700  0.500  2.255229  186.589  19.5637  9.759045
  9659.989  9660.000  0.500  2.259752  186.566  19.4731  9.581305
  9660.295  9660.300  0.500  2.264794  186.467  19.3649  9.348494
  9660.598  9660.600  0.500  2.270362  186.579  19.269  9.070776
  9660.904  9660.900  0.500  2.277130  186.514  19.1322  8.710417
  9661.191  9661.200  0.500  2.284257  186.334  18.9781  8.310030
  9661.505  9661.500  0.500  2.293421  186.446  18.8163  7.839378
  9661.800  9661.800  0.500  2.303486  186.468  18.63  7.379345
  9662.106  9662.100  0.500  2.316574  186.321  18.3733  6.894707
  9662.392  9662.400  0.500  2.331639  186.457  18.1117  6.467172
  9662.703  9662.700  0.500  2.352095  186.479  17.7471  6.040884
  9663.002  9663.000  0.500  2.376255  186.38  17.3143  5.656464
  9663.304  9663.300  0.500  2.407946  186.307  16.7676  5.270176
  9663.603  9663.600  0.500  2.444978  186.206  16.1493  4.909584
  9663.897  9663.900  0.500  2.491917  186.239  15.4115  4.546715
  9664.196  9664.200  0.500  2.549295  186.308  14.5575  4.183655
  9664.482  9664.500  0.500  2.620147  186.325  13.563  3.808431
  9664.797  9664.800  0.500  2.708388  186.194  12.4088  3.413792
  9665.092  9665.100  0.500  2.810048  186.268  11.2137  3.031908
  9665.390  9665.400  0.500  2.924988  186.083  9.986192  2.663072
  9665.697  9665.700  0.500  3.057000  186.208  8.757106  2.302955
  9665.992  9666.000  0.500  3.187638  186.145  7.682054  1.995636
  9666.299  9666.300  0.500  3.320366  186.061  6.724186  1.725483
  9666.593  9666.600  0.500  3.436779  186.018  5.983855  1.514647
  9666.904  9666.900  0.500  3.535890  185.997  5.418610  1.350542
  9667.195  9667.200  0.500  3.602770  185.921  5.065990  1.242666
  9667.510  9667.500  0.500  3.645980  185.861  4.850185  1.169277
  9667.800  9667.800  0.500  3.669986  185.786  4.733230  1.122615
  9668.107  9668.100  0.500  3.688597  185.672  4.643111  1.082974
  9668.398  9668.400  0.500  3.708252  185.473  4.547855  1.044383
  9668.705  9668.700  0.500  3.735868  185.722  4.429918  1.001128
  9669.004  9669.000  0.500  3.772211  185.689  4.271069  0.952555
  9669.315  9669.300  0.500  3.816441  185.853  4.089876  0.898630
  9669.598  9669.600  0.500  3.861371  185.774  3.908533  0.847067
  9669.901  9669.900  0.500  3.902171  185.88  3.754407  0.803431
  9670.196  9670.200  0.500  3.927412  185.827  3.659788  0.772916
  9670.499  9670.500  0.500  3.926991  185.79  3.660602  0.763029
  9670.794  9670.800  0.500  3.895724  185.878  3.778641  0.779632
  9671.093  9671.100  0.500  3.833546  185.743  4.018144  0.822517
  9671.388  9671.400  0.500  3.751948  185.823  4.361628  0.887909
  9671.695  9671.700  0.500  3.659993  185.715  4.778942  0.972986
  9671.990  9672.000  0.500  3.569934  185.771  5.230871  1.067514
  9672.293  9672.300  0.500  3.486837  185.686  5.681542  1.167145
  9672.600  9672.600  0.500  3.418972  185.798  6.084167  1.262392
  9672.903  9672.900  0.500  3.366625  185.649  6.405977  1.346741
  9673.203  9673.200  0.500  3.330915  185.762  6.642904  1.416753
  9673.502  9673.500  0.500  3.311962  185.672  6.766730  1.466965
  9673.801  9673.800  0.500  3.307415  185.582  6.794275  1.497780
  9674.108  9674.100  0.500  3.315246  185.671  6.744528  1.511529
  9674.407  9674.400  0.500  3.331474  185.582  6.632784  1.509877
  9674.707  9674.700  0.500  3.352442  185.642  6.497250  1.501296
  9675.006  9675.000  0.500  3.372730  185.469  6.360828  1.488160
  9675.313  9675.300  0.500  3.391740  185.541  6.243481  1.477697
  9675.601  9675.600  0.500  3.406748  185.597  6.152311  1.468225
  9675.900  9675.900  0.500  3.419366  185.526  6.072854  1.460121
  9676.203  9676.200  0.500  3.430598  185.513  6.004602  1.452471
  9676.507  9676.500  0.500  3.441476  185.487  5.938794  1.443317
  9676.794  9676.800  0.500  3.453178  185.425  5.867762  1.431633
  9677.097  9677.100  0.500  3.467449  185.414  5.784269  1.415773
  9677.393  9677.400  0.500  3.485216  185.343  5.680221  1.393347
  9677.700  9677.700  0.500  3.509047  185.405  5.548317  1.363394
  9677.996  9678.000  0.500  3.536323  185.264  5.394937  1.326786
  9678.295  9678.300  0.500  3.569831  185.301  5.218195  1.284544
  9678.595  9678.600  0.500  3.605063  185.319  5.038018  1.240571
  9678.898  9678.900  0.500  3.639388  185.29  4.867279  1.198221
  9679.194  9679.200  0.500  3.665903  185.334  4.741039  1.166492
  9679.493  9679.500  0.500  3.681651  185.25  4.664843  1.148703
  9679.797  9679.800  0.500  3.683639  185.27  4.656096  1.147427
  9680.105  9680.100  0.500  3.671309  185.136  4.710440  1.162837
  9680.404  9680.400  0.500  3.648055  185.182  4.822462  1.194326
  9680.704  9680.700  0.500  3.618205  185.192  4.968846  1.234649
  9681.008  9681.000  0.500  3.585907  185.009  5.126878  1.279417
  9681.303  9681.300  0.500  3.554304  185.162  5.295878  1.328588
  9681.599  9681.600  0.500  3.525235  185.063  5.449154  1.373955
  9681.911  9681.900  0.500  3.496885  185.143  5.608282  1.421563
  9682.206  9682.200  0.500  3.470929  185.032  5.752286  1.466189
  9682.510  9682.500  0.500  3.444958  184.983  5.902089  1.513416
  9682.802  9682.800  0.500  3.419865  184.987  6.052204  1.560744
  9683.106  9683.100  0.500  3.394967  184.881  6.201231  1.607525
  9683.393  9683.400  0.500  3.370766  184.912  6.354184  1.654911
  9683.596  9683.600  0.500  3.354543  185.004  6.461325  1.686727
  9684.601  9684.590  0.500  3.292008  184.92  6.875161  1.812176
  9685.598  9685.590  0.500  3.266897  184.819  7.046133  1.864990
  9686.632  9686.610  0.500  3.269222  184.796  7.028891  1.862319
  9687.690  9687.660  0.500  3.270332  184.681  7.016724  1.855204
  9688.752  9688.720  0.500  3.255725  184.75  7.122651  1.871598
  9689.819  9689.800  0.500  3.231418  184.676  7.294969  1.901811
  9690.915  9690.900  0.500  3.202170  184.584  7.507722  1.936749
  9692.039  9692.020  0.500  3.167878  184.489  7.765678  1.978805
  9693.176  9693.160  0.500  3.130641  184.466  8.059264  2.027480
  9694.333  9694.310  0.500  3.101995  184.399  8.290494  2.057758
  9695.515  9695.490  0.500  3.088150  184.177  8.395920  2.058971
  9696.693  9696.680  0.500  3.086583  184.247  8.412276  2.041950
  9697.908  9697.900  0.500  3.094796  184.156  8.339355  2.007465
  9699.139  9699.130  0.500  3.112595  184.039  8.187042  1.960462
  9700.399  9700.380  0.500  3.136951  184.142  7.994524  1.909990
  9701.680  9701.650  0.500  3.157178  183.996  7.828231  1.871939
  9702.966  9702.940  0.500  3.169746  183.835  7.723684  1.857122
  9704.268  9704.250  0.500  3.178221  183.907  7.661512  1.859730
  9705.582  9705.580  0.500  3.182886  183.694  7.617004  1.867473
  9706.930  9706.930  0.500  3.182210  183.668  7.621074  1.884353
  9708.310  9708.300  0.500  3.177272  183.555  7.654116  1.903068
  9709.699  9709.680  0.500  3.172556  181.797  7.616625  1.902376
  9711.105  9711.090  0.500  3.171366  182.419  7.651815  1.912615
  9712.515  9712.510  0.500  3.176130  183.515  7.661193  1.909735
  9713.963  9713.950  0.500  3.187576  183.428  7.570415  1.877168
  9715.423  9715.410  0.500  3.204577  183.298  7.437501  1.836226
  9716.904  9716.890  0.500  3.224526  183.102  7.282829  1.792644
  9718.389  9718.390  0.500  3.246351  183.041  7.123225  1.752390
  9719.920  9719.910  0.500  3.271434  183.105  6.949209  1.712803
  9721.480  9721.450  0.500  3.297906  183.084  6.766862  1.671682
  9723.020  9723.010  0.500  3.320595  182.955  6.610411  1.635238
  9724.597  9724.580  0.500  3.339459  182.751  6.479639  1.603897
  9726.191  9726.180  0.500  3.354786  182.805  6.382974  1.580659
  9727.806  9727.790  0.500  3.364417  182.65  6.316423  1.562110
  9729.459  9729.430  0.500  3.366215  182.611  6.303756  1.555062
  9731.087  9731.080  0.500  3.357771  182.541  6.354753  1.561640
  9732.765  9732.750  0.500  3.343081  182.366  6.442630  1.574911
  9734.452  9734.440  0.500  3.329428  182.342  6.530318  1.586777
  9736.177  9736.150  0.500  3.322847  182.249  6.570097  1.587096
  9737.885  9737.880  0.500  3.322250  182.156  6.570668  1.579418
  9739.636  9739.630  0.500  3.321869  181.913  6.564386  1.574828
  9741.395  9741.390  0.500  3.315726  182.017  6.608625  1.586264
  9743.187  9743.180  0.500  3.303547  181.851  6.683482  1.610825
  9744.980  9744.980  0.500  3.288661  181.762  6.780407  1.646951
  9746.820  9746.810  0.500  3.274070  181.56  6.872436  1.686638
  9748.668  9748.650  0.500  3.261295  181.49  6.958077  1.725238
  9750.529  9750.510  0.500  3.250267  181.353  7.029954  1.757878
  9752.399  9752.390  0.500  3.240611  181.288  7.095599  1.785329
  9754.298  9754.290  0.500  3.230016  181.204  7.167867  1.812318
  9756.231  9756.210  0.500  3.218261  181.804  7.276650  1.848398
  9758.161  9758.150  0.500  3.205956  181.835  7.367996  1.879269
  9760.117  9760.110  0.500  3.195195  181.645  7.439928  1.905361
  9762.097  9762.080  0.500  3.186268  181.425  7.497528  1.926977
  9764.091  9764.080  0.500  3.181041  181.45  7.537850  1.938894
  9766.099  9766.090  0.500  3.178519  181.264  7.549158  1.938160
  9768.148  9768.120  0.500  3.177470  181.016  7.546721  1.929473
  9770.202  9770.180  0.500  3.177476  180.894  7.541611  1.917462
  9772.274  9772.250  0.500  3.180486  180.548  7.504538  1.897676
  9774.355  9774.340  0.500  3.185675  179.373  7.417152  1.864865
  9776.470  9776.450  0.500  3.191577  180.827  7.433242  1.857220
  9778.598  9778.580  0.500  3.197652  180.643  7.380737  1.832095
  9780.723  9780.720  0.500  3.204268  180.583  7.329627  1.807753
  9782.915  9782.890  0.500  3.211802  180.3  7.263212  1.782872
  9785.108  9785.080  0.500  3.219151  178.347  7.131904  1.750019
  9787.298  9787.280  0.500  3.225487  180.195  7.160300  1.758830
  9789.518  9789.500  0.500  3.230404  180.048  7.119388  1.753440
  9791.772  9791.750  0.500  3.232022  177.674  7.014154  1.732469
  9794.019  9794.010  0.500  3.229513  179.863  7.118384  1.761732
  9796.321  9796.290  0.500  3.222721  179.664  7.158996  1.776210
  9798.612  9798.590  0.500  3.213660  179.6  7.221577  1.796838
  9800.920  9800.910  0.500  3.204488  179.452  7.282084  1.818234
  9803.275  9803.250  0.500  3.197992  176.803  7.221354  1.812109
  9805.631  9805.600  0.500  3.194735  179.468  7.354141  1.854430
  9808.001  9807.980  0.500  3.193746  179.135  7.347761  1.863969
  9810.385  9810.370  0.500  3.193967  178.917  7.337197  1.872321
  9812.815  9812.790  0.500  3.195794  178.945  7.324921  1.880160
  9815.234  9815.220  0.500  3.199247  178.835  7.295217  1.884631
  9817.697  9817.670  0.500  3.203198  178.772  7.263857  1.888070
  9820.164  9820.150  0.500  3.206572  177.9  7.204097  1.880389
  9822.662  9822.640  0.500  3.209522  178.44  7.204665  1.882672
  9825.170  9825.150  0.500  3.212094  178.325  7.181553  1.871848
  9827.679  9827.670  0.500  3.214379  178.14  7.157725  1.857270
  9830.252  9830.220  0.500  3.215065  177.448  7.125040  1.840695
  9832.809  9832.790  0.500  3.213114  177.852  7.155173  1.840927
  9835.398  9835.370  0.500  3.208830  176.626  7.136366  1.832173
  9838.004  9837.980  0.500  3.203047  177.402  7.209292  1.850493
  9840.612  9840.600  0.500  3.197006  177.421  7.253736  1.862044
  9843.276  9843.250  0.500  3.191464  176.892  7.272337  1.867075
  9845.941  9845.910  0.500  3.185028  177.124  7.328879  1.881514
  9848.607  9848.590  0.500  3.177390  176.967  7.378537  1.893569
  9851.309  9851.290  0.500  3.168480  176.846  7.439471  1.907458
  9854.033  9854.010  0.500  3.159658  176.808  7.503775  1.921967
  9856.784  9856.750  0.500  3.151713  176.568  7.553352  1.934285
  9859.528  9859.500  0.500  3.144214  176.486  7.606673  1.947491
  9862.291  9862.280  0.500  3.137186  176.281  7.651423  1.960096
  9865.097  9865.070  0.500  3.132372  176.253  7.687148  1.971421
  9867.900  9867.890  0.500  3.130021  176.086  7.697931  1.977862
  9870.743  9870.720  0.500  3.129724  175.929  7.693351  1.983051
  9873.588  9873.570  0.500  3.131021  175.808  7.678089  1.987276
  9876.477  9876.450  0.500  3.132639  175.465  7.650714  1.990888
  9879.367  9879.340  0.500  3.133661  172.216  7.501379  1.963194
  9882.272  9882.250  0.500  3.134512  175.275  7.628146  2.008173
  9885.195  9885.170  0.500  3.134835  175.13  7.619380  2.016298
  9888.141  9888.120  0.500  3.134265  175.007  7.618381  2.024792
  9891.098  9891.090  0.500  3.133594  174.865  7.617288  2.030550
  9894.094  9894.070  0.500  3.133233  174.733  7.614294  2.033489
  9897.114  9897.080  0.500  3.132619  174.568  7.611748  2.034820
  9900.114  9900.100  0.500  3.131145  174.402  7.615763  2.035601
  9903.171  9903.150  0.500  3.129093  174.136  7.619733  2.035105
  9906.230  9906.210  0.500  3.126515  173.929  7.630346  2.035819
  9909.317  9909.290  0.500  3.124054  173.818  7.644238  2.037133
  9912.401  9912.390  0.500  3.121883  173.585  7.650594  2.038906
  9915.543  9915.510  0.500  3.119079  173.476  7.667244  2.043211
  9918.673  9918.650  0.500  3.116314  173.326  7.681838  2.048237
  9921.827  9921.800  0.500  3.113325  173.064  7.693218  2.052576
  9924.992  9924.980  0.500  3.110701  172.867  7.704628  2.057070
  9928.206  9928.170  0.500  3.108100  172.297  7.699211  2.058163
  9931.413  9931.390  0.500  3.105494  167.889  7.521815  2.011416
  9934.631  9934.620  0.500  3.102896  172.679  7.756550  2.075775
  9937.880  9937.870  0.500  3.100417  172.384  7.762526  2.080939
  9941.162  9941.150  0.500  3.097434  172.119  7.773743  2.085999
  9944.447  9944.440  0.500  3.094201  172.003  7.793660  2.094356
  9947.759  9947.750  0.500  3.090953  171.823  7.810834  2.102684
  9951.099  9951.070  0.500  3.087573  171.819  7.837106  2.113540
  9954.437  9954.420  0.500  3.084680  171.47  7.843844  2.121433
  9957.803  9957.790  0.500  3.081595  167.006  7.663249  2.079003
  9961.184  9961.170  0.500  3.078558  170.772  7.859892  2.139582
  9964.593  9964.580  0.500  3.074900  170.758  7.888027  2.154323
  9968.005  9968.000  0.500  3.071792  170.302  7.891449  2.164724
  9971.462  9971.450  0.500  3.067896  168.138  7.821613  2.150953
  9974.913  9974.910  0.500  3.064956  170.338  7.947273  2.191019
  9978.405  9978.390  0.500  3.061738  170.121  7.962751  2.199862
  9981.896  9981.890  0.500  3.057779  169.769  7.977781  2.206500
  9985.432  9985.410  0.500  3.053288  166.527  7.860654  2.177158
  9988.970  9988.950  0.500  3.049539  169.51  8.031501  2.228515
  9992.494  9992.500  0.500  3.045951  169.299  8.050360  2.236524
  9996.107  9996.080  0.500  3.042254  168.691  8.051123  2.239435
  9999.683  9999.680  0.500  3.038825  168.947  8.091036  2.253390
  10003.306  10003.290  0.500  3.035196  168.863  8.116452  2.261766
  10006.927  10006.920  0.500  3.032043  168.492  8.124173  2.266606
  10010.602  10010.580  0.500  3.029179  166.304  8.041687  2.246305
  10014.250  10014.250  0.500  3.026916  167.76  8.130489  2.273370
  10017.966  10017.940  0.500  3.024347  167.924  8.159367  2.283969
  10021.667  10021.650  0.500  3.021632  167.71  8.171105  2.289273
  10025.389  10025.380  0.500  3.019269  167.417  8.176105  2.293684
  10029.156  10029.120  0.500  3.016956  167.186  8.183732  2.298496
  10032.905  10032.890  0.500  3.014864  166.865  8.185153  2.302371
  10036.692  10036.680  0.500  3.012783  165.75  8.147388  2.295302
  10040.485  10040.480  0.500  3.010416  166.945  8.225601  2.321309
  10044.330  10044.310  0.500  3.008358  166.669  8.228869  2.327645
  10048.182  10048.150  0.500  3.006171  166.306  8.228942  2.334515
  10052.029  10052.010  0.500  3.003732  166.272  8.247335  2.345523
  10055.922  10055.890  0.500  3.001013  165.889  8.250767  2.353087
  10059.814  10059.790  0.500  2.998087  165.49  8.255047  2.361512
  10063.740  10063.710  0.500  2.995151  165.352  8.272383  2.372364
  10067.655  10067.650  0.500  2.992165  165.016  8.280294  2.379559
  10071.640  10071.610  0.500  2.989009  164.979  8.304622  2.390318
  10075.597  10075.580  0.500  2.985362  164.718  8.321768  2.399839
  10079.601  10079.580  0.500  2.981480  164.395  8.337744  2.408488
  10083.631  10083.590  0.500  2.977960  164.391  8.366924  2.421761
  10087.659  10087.630  0.500  2.974469  164.021  8.377291  2.429569
  10091.730  10091.680  0.500  2.971076  162.104  8.307510  2.413737
  10095.774  10095.750  0.500  2.967187  163.56  8.414783  2.449266
  10099.887  10099.840  0.500  2.963621  163.266  8.429699  2.457534
  10103.973  10103.950  0.500  2.960073  163.142  8.453205  2.468531
  10108.120  10108.080  0.500  2.956143  162.869  8.472301  2.477604
  10112.283  10112.230  0.500  2.952744  162.621  8.488230  2.487142
  10116.441  10116.390  0.500  2.949056  162.405  8.508279  2.495653
  10120.611  10120.580  0.500  2.945715  162.178  8.524795  2.504433
  10124.821  10124.780  0.500  2.942284  161.816  8.534982  2.511925
  10129.043  10129.010  0.500  2.938865  161.508  8.547942  2.519776
  10133.282  10133.250  0.500  2.935552  161.351  8.567954  2.528339
  10137.564  10137.510  0.500  2.932329  161.24  8.589688  2.539575
  10141.810  10141.790  0.500  2.929124  160.901  8.599158  2.547257
  10146.118  10146.090  0.500  2.925660  160.685  8.617436  2.557318
  10150.447  10150.410  0.500  2.922519  160.553  8.637436  2.567849
  10154.775  10154.750  0.500  2.919250  160.258  8.649786  2.577816
  10159.148  10159.110  0.500  2.916064  159.975  8.662063  2.586907
  10163.515  10163.490  0.500  2.912719  159.584  8.669836  2.594760
  10167.922  10167.880  0.500  2.909539  159.243  8.678891  2.603665
  10172.329  10172.300  0.500  2.906242  159.02  8.695358  2.613997
  10176.757  10176.730  0.500  2.903103  158.908  8.716533  2.624880
  10181.239  10181.180  0.500  2.899944  158.597  8.726991  2.633552
  10185.684  10185.650  0.500  2.896905  158.327  8.738667  2.641540
  10190.178  10190.140  0.500  2.893666  158.101  8.754521  2.652832
  10194.712  10194.650  0.500  2.890583  157.829  8.766414  2.660442
  10199.232  10199.180  0.500  2.887625  157.658  8.782872  2.671943
  10203.793  10203.730  0.500  2.884431  157.42  8.797686  2.679401
  10208.330  10208.300  0.500  2.881454  157.093  8.805574  2.688104
  10212.939  10212.880  0.500  2.878214  156.829  8.819300  2.696466
  10217.530  10217.490  0.500  2.875007  156.405  8.823715  2.703483
  10222.153  10222.110  0.500  2.871730  156.207  8.841473  2.713557
  10226.802  10226.760  0.500  2.868370  155.9  8.853775  2.722456
  10231.483  10231.420  0.500  2.865106  155.738  8.873479  2.732735
  10236.136  10236.100  0.500  2.861993  155.358  8.879442  2.740154
  10240.812  10240.800  0.500  2.858317  155.035  8.893631  2.748038
  10245.556  10245.520  0.500  2.855038  154.841  8.911661  2.758499
  10250.277  10250.260  0.500  2.851587  154.534  8.924759  2.767593
  10254.989  10255.010  0.500  2.848200  154.908  8.976695  2.789190
  10259.773  10259.790  0.500  2.844666  154.759  8.999828  2.801045
  10264.667  10264.590  0.500  2.840858  154.459  9.016620  2.811380
  10269.420  10269.400  0.500  2.837594  154.039  9.021507  2.819148
  10274.214  10274.230  0.500  2.833853  153.618  9.030545  2.827031
  10279.095  10279.090  0.500  2.830288  153.409  9.050472  2.838601
  10283.953  10283.960  0.500  2.826649  153.193  9.070727  2.850787
  10288.852  10288.850  0.500  2.822792  152.674  9.074927  2.857819
  10293.728  10293.760  0.500  2.819476  152.511  9.095352  2.869709
  10298.656  10298.690  0.500  2.815842  152.228  9.111510  2.880720