File: docs/_static/March2024/BMM/Mn_Pyrolucite.001
# XDI/1.0 BlueSky/1.11.0 BMM/2023-2.1-py310-tiled
# Beamline.name: BMM (06BM) -- Beamline for Materials Measurement (NIST)
# Beamline.xray_source: NSLS-II three-pole wiggler
# Beamline.collimation: paraboloid mirror, 5 nm Rh on 30 nm Pt
# Beamline.focusing: not in use
# Beamline.harmonic_rejection: flat mirror, Si stripe, pitch = 7.0 mrad relative to beam
# Beamline.software: Bluesky 1.11.0, Ophyd 1.8.0, DataBroker 2.0.0b23, Python 3.10.8, 2023-2.1-py310-tiled
# Detector.I0: 10 cm N2
# Detector.I1: 25 cm N2
# Detector.I2: 25 cm N2
# Element.symbol: Mn
# Element.edge: K
# Element.reference: Mn
# Element.reference_material: Mn metal powder
# Facility.name: NSLS-II
# Facility.energy: 3.0
# Facility.current: 399.4
# Facility.mode: top-off
# Facility.GUP: 315355
# Facility.SAF: 313563
# Facility.cycle: 2024-1
# Mono.name: Si(111)
# Mono.d_spacing: 3.13542
# Mono.encoder_resolution: 0.0000050 deg/ct
# Mono.angle_offset: 16.0892 deg
# Mono.scan_mode: pseudo channel cut
# Mono.scan_type: step
# Mono.direction: forward in energy
# Sample.name: MnO2
# Sample.prep: PEG pellet
# Sample.x: 90.051 mm
# Sample.y: 81.516 mm
# Sample.SDD_position: 205.000 mm
# Scan.experimenters: XAS course 2024
# Scan.edge_energy: 6539.0
# Scan.start_time: 2024-03-21T10:35:18
# Scan.end_time: 2024-03-21T10:42:17
# Scan.transient_id: 5302
# Scan.uid: acfe6a8e-27cd-4653-b17b-d27a9adfd3c6
# Scan.hdf5file: None
# Scan.plot_hint: ln(I0/It)  --  ln($5/$6)
# Column.1: energy eV
# Column.2: requested_energy eV
# Column.3: measurement_time seconds
# Column.4: xmu
# Column.5: I0 nA
# Column.6: It nA
# Column.7: Ir nA
# ///////////
# Welcome to BMM
# -----------
# energy  requested_energy  measurement_time  xmu  I0  It  Ir
  6339.001  6339.000  0.500  5.361233  209.571  0.983960  0.005474
  6349.010  6349.000  0.500  5.340534  209.708  1.005195  0.005616
  6359.012  6359.000  0.500  5.319778  209.85  1.026972  0.005950
  6369.031  6369.000  0.500  5.298937  209.983  1.049266  0.006183
  6379.020  6379.000  0.500  5.277680  209.99  1.071843  0.006379
  6389.020  6389.000  0.500  5.258187  210.251  1.094299  0.006344
  6399.010  6399.000  0.500  5.238926  210.462  1.116699  0.006762
  6409.011  6409.000  0.500  5.216756  210.412  1.141464  0.007100
  6419.014  6419.000  0.500  5.197614  210.667  1.164934  0.007117
  6429.008  6429.000  0.500  5.178123  210.712  1.188114  0.007439
  6439.008  6439.000  0.500  5.157957  210.674  1.212099  0.007701
  6449.009  6449.000  0.500  5.139969  210.163  1.231108  0.007890
  6458.989  6459.000  0.500  5.128673  209.168  1.239200  0.007847
  6468.998  6469.000  0.500  5.105872  211.469  1.281726  0.008166
  6478.992  6479.000  0.500  5.086311  211.431  1.306806  0.008510
  6488.999  6489.000  0.500  5.067391  211.509  1.332260  0.008381
  6499.000  6499.000  0.500  5.048541  212.259  1.362425  0.008778
  6509.006  6509.000  0.500  5.031869  212.435  1.386480  0.008757
  6511.000  6511.000  0.500  5.028384  212.427  1.391266  0.008759
  6512.995  6513.000  0.500  5.024837  212.413  1.396118  0.008892
  6514.992  6515.000  0.500  5.022194  212.509  1.400447  0.009106
  6516.992  6517.000  0.500  5.018201  212.501  1.405995  0.008901
  6518.997  6519.000  0.500  5.014640  212.546  1.411309  0.009062
  6520.990  6521.000  0.500  5.011023  212.499  1.416109  0.008992
  6522.998  6523.000  0.500  5.008321  212.633  1.420838  0.008980
  6524.998  6525.000  0.500  5.004550  212.531  1.425524  0.008927
  6526.997  6527.000  0.500  5.001126  212.457  1.429913  0.008829
  6528.997  6529.000  0.500  4.998924  212.546  1.433666  0.008767
  6529.288  6529.300  0.500  4.997800  212.488  1.434887  0.008616
  6529.585  6529.600  0.500  4.999215  212.643  1.433901  0.008650
  6529.883  6529.900  0.500  4.996881  212.405  1.435648  0.008669
  6530.185  6530.200  0.500  4.996648  212.425  1.436113  0.008607
  6530.486  6530.500  0.500  4.996630  212.452  1.436326  0.008753
  6530.786  6530.800  0.500  4.995742  212.414  1.437339  0.008696
  6531.082  6531.100  0.500  4.996507  212.552  1.437172  0.008510
  6531.383  6531.400  0.500  4.996001  212.511  1.437625  0.008575
  6531.686  6531.700  0.500  4.995490  212.502  1.438303  0.008516
  6531.986  6532.000  0.500  4.994167  212.39  1.439444  0.008525
  6532.288  6532.300  0.500  4.995593  212.55  1.438472  0.008524
  6532.586  6532.600  0.500  4.995264  212.622  1.439433  0.008231
  6532.891  6532.900  0.500  4.995496  212.613  1.439044  0.008304
  6533.192  6533.200  0.500  4.994276  212.55  1.440373  0.008456
  6533.492  6533.500  0.500  4.993044  212.402  1.441141  0.008086
  6533.789  6533.800  0.500  4.992375  212.4  1.442097  0.008051
  6534.094  6534.100  0.500  4.992465  212.435  1.442200  0.008032
  6534.394  6534.400  0.500  4.992774  212.448  1.441843  0.008039
  6534.694  6534.700  0.500  4.992300  212.408  1.442253  0.008083
  6534.990  6535.000  0.500  4.992467  212.418  1.442085  0.007769
  6535.294  6535.300  0.500  4.992878  212.494  1.442009  0.007452
  6535.596  6535.600  0.500  4.992439  212.446  1.442316  0.007461
  6535.894  6535.900  0.500  4.993289  212.524  1.441615  0.007344
  6536.198  6536.200  0.500  4.991430  212.362  1.443197  0.007175
  6536.498  6536.500  0.500  4.992755  212.521  1.442364  0.006689
  6536.796  6536.800  0.500  4.991254  212.29  1.442962  0.006665
  6537.097  6537.100  0.500  4.991863  212.356  1.442536  0.005776
  6537.397  6537.400  0.500  4.993210  212.389  1.440813  0.005135
  6537.694  6537.700  0.500  4.996244  212.523  1.437360  0.004293
  6537.992  6538.000  0.500  4.997876  212.555  1.435229  0.003122
  6538.292  6538.300  0.500  5.001095  212.562  1.430664  0.002466
  6538.595  6538.600  0.500  5.005829  212.515  1.423589  0.001838
  6538.891  6538.900  0.500  5.012118  212.485  1.414467  0.001426
  6539.195  6539.200  0.500  5.016934  212.43  1.407309  0.001169
  6539.496  6539.500  0.500  5.021503  212.476  1.401198  0.001064
  6539.798  6539.800  0.500  5.023295  212.423  1.398338  0.000659
  6540.099  6540.100  0.500  5.024714  212.453  1.396552  0.000856
  6540.399  6540.400  0.500  5.024360  212.38  1.396567  0.000665
  6540.702  6540.700  0.500  5.023557  212.324  1.397323  0.000655
  6541.002  6541.000  0.500  5.024915  212.357  1.395641  0.000539
  6541.299  6541.300  0.500  5.028282  212.463  1.391646  0.000656
  6541.598  6541.600  0.500  5.029770  212.343  1.388792  0.000373
  6541.899  6541.900  0.500  5.032150  212.398  1.385848  0.000301
  6542.199  6542.200  0.500  5.032851  212.457  1.385258  0.000470
  6542.498  6542.500  0.500  5.032741  212.473  1.385516  0.000556
  6542.803  6542.800  0.500  5.032339  212.438  1.385849  0.000524
  6543.100  6543.100  0.500  5.031378  212.409  1.386988  0.000499
  6543.403  6543.400  0.500  5.030639  212.326  1.387474  0.000514
  6543.703  6543.700  0.500  5.031912  212.305  1.385570  0.000436
  6544.002  6544.000  0.500  5.033922  212.28  1.382625  0.000554
  6544.296  6544.300  0.500  5.035397  212.243  1.380345  0.000263
  6544.595  6544.600  0.500  5.039293  212.314  1.375438  0.000355
  6544.894  6544.900  0.500  5.042687  212.319  1.370812  0.000281
  6545.201  6545.200  0.500  5.046234  212.218  1.365308  0.000333
  6545.500  6545.500  0.500  5.052673  212.353  1.357408  0.000320
  6545.803  6545.800  0.500  5.058371  212.256  1.349081  0.000536
  6546.102  6546.100  0.500  5.066954  212.178  1.337058  -0.000018
  6546.405  6546.400  0.500  5.078875  212.233  1.321558  0.000349
  6546.705  6546.700  0.500  5.093769  212.255  1.302156  0.000272
  6547.002  6547.000  0.500  5.111054  212.169  1.279318  0.000085
  6547.302  6547.300  0.500  5.135508  212.342  1.249432  0.000235
  6547.599  6547.600  0.500  5.163399  212.355  1.215141  0.000320
  6547.900  6547.900  0.500  5.196352  212.316  1.175533  -0.000009
  6548.202  6548.200  0.500  5.232064  212.296  1.134190  -0.000039
  6548.499  6548.500  0.500  5.269086  212.126  1.092091  -0.000130
  6548.801  6548.800  0.500  5.308224  212.109  1.050089  0.000109
  6549.100  6549.100  0.500  5.347151  212.231  1.010579  0.000021
  6549.405  6549.400  0.500  5.381250  212.228  0.976687  0.000042
  6549.701  6549.700  0.500  5.410254  212.29  0.949043  -0.000214
  6549.999  6550.000  0.500  5.433750  212.306  0.927075  -0.000041
  6550.295  6550.300  0.500  5.454277  212.295  0.908192  0.000044
  6550.593  6550.600  0.500  5.474117  212.324  0.890473  -0.000077
  6550.897  6550.900  0.500  5.494678  212.339  0.872412  -0.000058
  6551.204  6551.200  0.500  5.514402  212.343  0.855388  0.000206
  6551.500  6551.500  0.500  5.535643  212.312  0.837289  -0.000176
  6551.805  6551.800  0.500  5.556052  212.282  0.820260  -0.000016
  6552.105  6552.100  0.500  5.576923  212.253  0.803205  -0.000074
  6552.405  6552.400  0.500  5.597222  212.235  0.786999  -0.000243
  6552.705  6552.700  0.500  5.616418  212.094  0.771522  0.000115
  6552.996  6553.000  0.500  5.636193  212.229  0.756898  -0.000025
  6553.297  6553.300  0.500  5.651733  212.08  0.744704  0.000027
  6553.596  6553.600  0.500  5.668782  212.149  0.732353  -0.000163
  6553.903  6553.900  0.500  5.685076  212.1  0.720350  -0.000026
  6554.203  6554.200  0.500  5.703611  212.187  0.707411  -0.000121
  6554.503  6554.500  0.500  5.719318  212.008  0.695801  -0.000089
  6554.805  6554.800  0.500  5.741011  212.202  0.681491  -0.000335
  6555.101  6555.100  0.500  5.761233  212.197  0.667833  -0.000062
  6555.403  6555.400  0.500  5.782009  212.253  0.654275  -0.000241
  6555.702  6555.700  0.500  5.801659  212.25  0.641534  -0.000134
  6555.997  6556.000  0.500  5.819718  212.164  0.629797  0.000031
  6556.299  6556.300  0.500  5.835848  212.133  0.619628  -0.000144
  6556.601  6556.600  0.500  5.848232  212.016  0.611664  0.000225
  6556.903  6556.900  0.500  5.861124  212.086  0.604029  -0.000071
  6557.205  6557.200  0.500  5.870330  212.192  0.598794  -0.000085
  6557.504  6557.500  0.500  5.876868  212.163  0.594809  -0.000107
  6557.804  6557.800  0.500  5.882847  212.192  0.591346  -0.000291
  6558.101  6558.100  0.500  5.887737  212.163  0.588379  -0.000061
  6558.405  6558.400  0.500  5.893000  212.094  0.585102  -0.000008
  6558.700  6558.700  0.500  5.896756  211.954  0.582522  0.000049
  6559.006  6559.000  0.500  5.903889  212.09  0.578753  -0.000051
  6559.296  6559.300  0.500  5.908412  212.041  0.576009  -0.000251
  6559.602  6559.600  0.500  5.912212  211.976  0.573648  0.000093
  6559.901  6559.900  0.500  5.913654  211.982  0.572839  0.000072
  6560.205  6560.200  0.500  5.912758  211.908  0.573150  -0.000218
  6560.502  6560.500  0.500  5.908241  211.684  0.575137  -0.000073
  6560.803  6560.800  0.500  5.901489  211.59  0.578777  -0.000056
  6561.105  6561.100  0.500  5.890593  211.474  0.584798  -0.000353
  6561.402  6561.400  0.500  5.880619  211.858  0.591731  -0.000078
  6561.699  6561.700  0.500  5.868245  212.024  0.599568  -0.000219
  6562.002  6562.000  0.500  5.852884  211.901  0.608496  0.000050
  6562.299  6562.300  0.500  5.840108  211.947  0.616455  -0.000037
  6562.602  6562.600  0.500  5.827992  212.078  0.624353  -0.000227
  6562.903  6562.900  0.500  5.816003  212.104  0.631961  -0.000172
  6563.202  6563.200  0.500  5.803373  211.99  0.639650  0.000117
  6563.503  6563.500  0.500  5.794326  212.031  0.645588  -0.000268
  6563.806  6563.800  0.500  5.784721  211.931  0.651510  0.000050
  6564.007  6564.000  0.500  5.780313  211.968  0.654504  0.000041
  6565.014  6564.990  0.500  5.759796  211.979  0.668104  -0.000035
  6565.986  6565.990  0.500  5.742343  211.651  0.678816  -0.000061
  6567.004  6567.010  0.500  5.730808  211.774  0.687091  -0.000275
  6568.059  6568.060  0.500  5.720047  211.728  0.694375  0.000050
  6569.114  6569.120  0.500  5.718624  211.872  0.695836  -0.000214
  6570.204  6570.200  0.500  5.721457  211.903  0.693968  -0.000215
  6571.305  6571.300  0.500  5.726055  212.419  0.692466  -0.000250
  6572.423  6572.420  0.500  5.732809  212.566  0.688282  -0.000079
  6573.562  6573.560  0.500  5.730701  212.524  0.689599  -0.000230
  6574.713  6574.710  0.500  5.719578  212.622  0.697634  -0.000130
  6575.889  6575.890  0.500  5.698420  212.661  0.712681  -0.000159
  6577.085  6577.080  0.500  5.673683  212.743  0.730813  -0.000070
  6578.304  6578.300  0.500  5.647553  212.643  0.749806  -0.000219
  6579.535  6579.530  0.500  5.624651  212.582  0.766958  -0.000114
  6580.788  6580.780  0.500  5.604390  212.676  0.783001  -0.000108
  6582.061  6582.050  0.500  5.585696  212.607  0.797519  0.000184
  6583.345  6583.340  0.500  5.569048  212.633  0.811004  -0.000119
  6584.659  6584.650  0.500  5.553949  212.711  0.823646  -0.000095
  6585.982  6585.980  0.500  5.539933  212.625  0.834935  -0.000200
  6587.336  6587.330  0.500  5.530855  212.357  0.841486  0.000076
  6588.706  6588.700  0.500  5.524268  212.664  0.848272  -0.000316
  6590.089  6590.080  0.500  5.521936  212.679  0.850311  -0.000088
  6591.499  6591.490  0.500  5.521875  212.707  0.850477  -0.000147
  6592.913  6592.910  0.500  5.522938  212.639  0.849302  0.000067
  6594.357  6594.350  0.500  5.526662  212.586  0.845931  -0.000136
  6595.813  6595.810  0.500  5.534308  212.706  0.839962  -0.000342
  6597.301  6597.290  0.500  5.544024  212.549  0.831229  -0.000028
  6598.799  6598.790  0.500  5.555831  212.672  0.821947  -0.000032
  6600.319  6600.310  0.500  5.561441  212.427  0.816407  -0.000084
  6601.859  6601.850  0.500  5.571123  212.309  0.808093  -0.000051
  6603.419  6603.410  0.500  5.577695  212.484  0.803460  -0.000137
  6604.988  6604.980  0.500  5.582700  212.49  0.799472  -0.000137
  6606.592  6606.580  0.500  5.586168  212.605  0.797135  -0.000062
  6608.199  6608.190  0.500  5.587449  212.579  0.796015  0.000159
  6609.838  6609.830  0.500  5.589028  212.63  0.794949  -0.000004
  6611.482  6611.480  0.500  5.589631  212.665  0.794603  -0.000127
  6613.162  6613.150  0.500  5.587757  212.566  0.795722  0.000031
  6614.844  6614.840  0.500  5.586082  212.638  0.797325  -0.000022
  6616.558  6616.550  0.500  5.580402  212.491  0.801313  -0.000196
  6618.294  6618.280  0.500  5.576716  212.511  0.804347  -0.000171
  6620.036  6620.030  0.500  5.571454  212.487  0.808500  -0.000220
  6621.803  6621.790  0.500  5.568127  212.647  0.811806  0.000017
  6623.586  6623.580  0.500  5.562286  212.62  0.816460  -0.000207
  6625.390  6625.380  0.500  5.558070  212.64  0.819985  -0.000135
  6627.220  6627.210  0.500  5.552119  212.533  0.824465  -0.000066
  6629.063  6629.050  0.500  5.548266  212.218  0.826419  -0.000014
  6630.924  6630.910  0.500  5.546891  212.624  0.829139  0.000008
  6632.801  6632.790  0.500  5.545293  212.696  0.830748  -0.000178
  6634.702  6634.690  0.500  5.543749  212.679  0.831963  0.000049
  6636.625  6636.610  0.500  5.539608  212.559  0.834947  0.000020
  6638.558  6638.550  0.500  5.536420  212.595  0.837755  -0.000072
  6640.525  6640.510  0.500  5.530191  212.581  0.842932  -0.000065
  6642.493  6642.480  0.500  5.521245  212.451  0.849988  -0.000087
  6644.483  6644.480  0.500  5.514910  212.617  0.856057  -0.000025
  6646.504  6646.490  0.500  5.505072  212.566  0.864313  -0.000038
  6648.532  6648.520  0.500  5.497156  212.543  0.871090  -0.000112
  6650.587  6650.580  0.500  5.488718  212.482  0.878217  -0.000105
  6652.661  6652.650  0.500  5.483559  212.658  0.883492  0.000089
  6654.752  6654.740  0.500  5.474750  212.375  0.890123  0.000071
  6656.862  6656.850  0.500  5.471799  212.6  0.893698  0.000021
  6658.990  6658.980  0.500  5.467711  212.645  0.897551  -0.000114
  6661.129  6661.120  0.500  5.462434  212.487  0.901629  -0.000161
  6663.301  6663.290  0.500  5.458407  212.455  0.905132  0.000079
  6665.485  6665.480  0.500  5.455070  212.503  0.908360  -0.000077
  6667.692  6667.680  0.500  5.450189  212.52  0.912878  -0.000072
  6669.914  6669.900  0.500  5.445850  212.498  0.916754  -0.000053
  6672.163  6672.150  0.500  5.439163  212.47  0.922784  -0.000044
  6674.419  6674.410  0.500  5.432415  212.415  0.928792  -0.000197
  6676.706  6676.690  0.500  5.425161  212.328  0.935170  -0.000014
  6678.999  6678.990  0.500  5.418866  212.236  0.940664  -0.000026
  6681.315  6681.310  0.500  5.415407  212.386  0.944594  -0.000044
  6683.657  6683.650  0.500  5.410156  212.291  0.949142  -0.000187
  6686.013  6686.000  0.500  5.408212  212.384  0.951407  -0.000108
  6688.396  6688.380  0.500  5.406023  212.421  0.953654  -0.000061
  6690.779  6690.770  0.500  5.403800  212.359  0.955497  0.000071
  6693.196  6693.190  0.500  5.400260  212.297  0.958605  -0.000110
  6695.626  6695.620  0.500  5.396589  212.187  0.961633  -0.000058
  6698.081  6698.070  0.500  5.393215  212.102  0.964499  0.000016
  6700.561  6700.550  0.500  5.390648  212.097  0.966952  -0.000114
  6703.048  6703.040  0.500  5.387120  212.048  0.970149  0.000070
  6705.565  6705.550  0.500  5.386511  212.184  0.971360  -0.000238
  6708.084  6708.070  0.500  5.383273  212.203  0.974599  -0.000211
  6710.631  6710.620  0.500  5.378892  212.096  0.978384  -0.000148
  6713.198  6713.190  0.500  5.374477  212.061  0.982549  0.000104
  6715.784  6715.770  0.500  5.369180  211.903  0.987032  0.000128
  6718.397  6718.380  0.500  5.367343  212.079  0.989670  -0.000045
  6721.014  6721.000  0.500  5.362510  211.997  0.994080  -0.000013
  6723.666  6723.650  0.500  5.357383  211.921  0.998832  0.000105
  6726.322  6726.310  0.500  5.351476  211.843  1.004379  0.000058
  6729.005  6728.990  0.500  5.344208  211.669  1.010872  0.000063
  6731.701  6731.690  0.500  5.336418  211.597  1.018434  -0.000115
  6734.434  6734.410  0.500  5.330904  211.72  1.024659  -0.000187
  6737.174  6737.150  0.500  5.323484  211.699  1.032190  0.000077
  6739.918  6739.900  0.500  5.314350  211.514  1.040751  -0.000112
  6742.698  6742.680  0.500  5.308706  211.546  1.046797  -0.000110
  6745.498  6745.470  0.500  5.300178  211.394  1.055003  -0.000364
  6748.299  6748.290  0.500  5.292633  211.28  1.062423  -0.000109
  6751.152  6751.120  0.500  5.286424  211.243  1.068854  0.000069
  6753.975  6753.970  0.500  5.279448  211.186  1.076043  -0.000204
  6756.851  6756.850  0.500  5.271466  210.999  1.083707  0.000047
  6759.741  6759.740  0.500  5.266130  211.023  1.089631  0.000004
  6762.652  6762.650  0.500  5.260463  210.977  1.095584  -0.000196
  6765.572  6765.570  0.500  5.254486  210.921  1.101858  -0.000021
  6768.522  6768.520  0.500  5.247779  210.734  1.108291  0.000246
  6771.492  6771.490  0.500  5.243760  210.755  1.112864  -0.000054
  6774.472  6774.470  0.500  5.236481  210.592  1.120128  -0.000045
  6777.473  6777.480  0.500  5.229811  210.457  1.126898  0.000048
  6780.521  6780.500  0.500  5.224340  210.333  1.132415  -0.000150
  6783.550  6783.550  0.500  5.219622  210.263  1.137393  -0.000330
  6786.608  6786.610  0.500  5.214707  210.202  1.142666  -0.000173
  6789.691  6789.690  0.500  5.207005  209.847  1.149555  -0.000300
  6792.788  6792.790  0.500  5.199962  207.73  1.145998  -0.000210
  6795.909  6795.910  0.500  5.196326  209.132  1.157935  -0.000362
  6799.046  6799.050  0.500  5.188290  209.451  1.169057  0.000230
  6802.197  6802.200  0.500  5.183681  209.463  1.174530  -0.000144
  6805.374  6805.380  0.500  5.176390  209.338  1.182419  -0.000113
  6808.561  6808.570  0.500  5.169842  209.305  1.189997  0.000034
  6811.813  6811.790  0.500  5.155640  195.858  1.129474  -0.000179
  6815.013  6815.020  0.500  5.160307  207.854  1.193066  -0.000139
  6818.262  6818.270  0.500  5.155799  208.264  1.200826  -0.000183
  6821.543  6821.550  0.500  5.137563  205.278  1.205388  0.000101
  6824.849  6824.840  0.500  5.144078  206.495  1.204663  -0.000065
  6828.140  6828.150  0.500  5.138755  207.108  1.214689  -0.000121
  6831.469  6831.470  0.500  5.132565  206.984  1.221497  0.000081
  6834.818  6834.820  0.500  5.127957  206.888  1.226566  -0.000044
  6838.193  6838.190  0.500  5.121050  206.014  1.229852  -0.000026
  6841.591  6841.570  0.500  5.121608  192.38  1.147819  0.000056
  6844.975  6844.980  0.500  5.104588  205.918  1.249685  0.000119
  6848.422  6848.400  0.500  5.097419  205.754  1.257670  -0.000236
  6851.842  6851.850  0.500  5.090222  205.569  1.265619  0.000165
  6855.302  6855.310  0.500  5.083109  205.435  1.273818  0.000089
  6858.782  6858.790  0.500  5.075632  205.224  1.282063  0.000061
  6862.279  6862.290  0.500  5.067721  204.45  1.287374  -0.000042
  6865.804  6865.810  0.500  5.061409  204.782  1.297628  -0.000090
  6869.342  6869.350  0.500  5.054253  204.683  1.306316  0.000071
  6872.891  6872.900  0.500  5.047751  204.448  1.313327  -0.000145
  6876.475  6876.480  0.500  5.040283  204.181  1.321440  0.000018
  6880.071  6880.080  0.500  5.033035  203.895  1.329191  0.000010
  6883.679  6883.690  0.500  5.024799  203.558  1.337965  0.000077
  6887.309  6887.320  0.500  5.017682  203.231  1.345362  0.000077
  6890.965  6890.980  0.500  5.009939  202.971  1.354084  -0.000094
  6894.637  6894.650  0.500  5.003014  202.716  1.361777  0.000238
  6898.330  6898.340  0.500  4.993924  202.264  1.371148  0.000011
  6902.034  6902.050  0.500  4.986712  202  1.379273  0.000110
  6905.771  6905.780  0.500  4.977959  201.599  1.388636  0.000060
  6909.508  6909.520  0.500  4.971821  201.336  1.395362  -0.000178
  6913.284  6913.290  0.500  4.964157  200.912  1.403133  -0.000019
  6917.107  6917.080  0.500  4.955063  200.469  1.412835  0.000067
  6920.877  6920.880  0.500  4.947964  200.071  1.420071  -0.000151
  6924.702  6924.710  0.500  4.940939  199.697  1.427413  -0.000055
  6928.544  6928.550  0.500  4.931519  199.182  1.437204  0.000051
  6932.395  6932.410  0.500  4.923700  198.879  1.446284  0.000117
  6936.290  6936.290  0.500  4.917190  198.605  1.453720  0.000369
  6940.172  6940.190  0.500  4.908512  198.2  1.463406  0.000016
  6944.103  6944.110  0.500  4.900219  197.703  1.471891  0.000065
  6948.066  6948.050  0.500  4.893772  197.984  1.483516  0.000035
  6952.000  6952.010  0.500  4.887310  197.609  1.490305  0.000041
  6955.999  6955.980  0.500  4.879564  197.184  1.498664  0.000210
  6959.990  6959.980  0.500  4.873971  196.836  1.504408  0.000010
  6964.000  6963.990  0.500  4.865415  196.403  1.513999  0.000023
  6968.040  6968.030  0.500  4.857696  195.971  1.522375  0.000123
  6972.092  6972.080  0.500  4.849596  195.604  1.531878  0.000222
  6976.166  6976.150  0.500  4.842548  195.212  1.539622  0.000055
  6980.250  6980.240  0.500  4.835474  194.782  1.547138  -0.000117
  6984.367  6984.350  0.500  4.825088  194.271  1.559192  -0.000137
  6988.491  6988.480  0.500  4.819344  194.021  1.566150  0.000069
  6992.645  6992.630  0.500  4.809662  193.521  1.577312  0.000020
  6996.807  6996.790  0.500  4.804351  193.251  1.583502  -0.000011
  7000.982  7000.980  0.500  4.796295  192.825  1.592792  -0.000369
  7005.195  7005.180  0.500  4.790173  192.504  1.599906  0.000002
  7009.397  7009.410  0.500  4.780689  191.92  1.610248  -0.000024
  7013.661  7013.650  0.500  4.770998  191.491  1.622297  -0.000025
  7017.909  7017.910  0.500  4.764752  191.195  1.629938  -0.000085
  7022.181  7022.190  0.500  4.755887  190.791  1.640977  -0.000112
  7026.480  7026.490  0.500  4.751168  190.627  1.647325  0.000058
  7030.830  7030.810  0.500  4.742390  190.184  1.657985  0.000247
  7035.137  7035.150  0.500  4.730559  189.642  1.672935  0.000182
  7039.505  7039.510  0.500  4.723154  189.461  1.683762  0.000104
  7043.872  7043.890  0.500  4.714225  189.02  1.694911  0.000133
  7048.259  7048.280  0.500  4.707460  188.613  1.702740  0.000255
  7052.680  7052.700  0.500  4.698143  188.158  1.714527  0.000140
  7057.119  7057.130  0.500  4.693108  187.916  1.720969  -0.000038
  7061.570  7061.580  0.500  4.681386  186.96  1.732403  -0.000166
  7066.037  7066.050  0.500  4.673561  187.008  1.746455  0.000156
  7070.524  7070.540  0.500  4.670090  185.239  1.735951  0.000087
  7075.030  7075.050  0.500  4.659911  184.67  1.748325  0.000102
  7079.571  7079.580  0.500  4.651716  185.848  1.773959  0.000030
  7084.115  7084.130  0.500  4.646675  185.397  1.778599  0.000233
  7088.687  7088.700  0.500  4.638629  185.353  1.792540  0.000019
  7093.261  7093.280  0.500  4.632114  185.029  1.801105  0.000187
  7097.875  7097.890  0.500  4.624194  184.744  1.812629  -0.000048
  7102.491  7102.510  0.500  4.614547  184.28  1.825602  0.000081
  7107.146  7107.160  0.500  4.608526  184.015  1.833985  0.000176
  7111.807  7111.820  0.500  4.601888  183.537  1.841402  0.000250
  7116.487  7116.500  0.500  4.593954  182.987  1.850514  -0.000145
  7121.180  7121.200  0.500  4.583779  182.377  1.863203  0.000106
  7125.898  7125.920  0.500  4.575775  181.823  1.872474  0.000188
  7130.645  7130.660  0.500  4.568270  181.127  1.879356  0.000018
  7135.392  7135.410  0.500  4.560090  180.625  1.889535  -0.000074
  7140.174  7140.190  0.500  4.555253  180.488  1.897258  0.000220
  7144.979  7144.990  0.500  4.545725  180.178  1.912139  0.000033
  7149.783  7149.800  0.500  4.538693  179.853  1.922155  0.000302
  7154.620  7154.630  0.500  4.535103  179.637  1.926745  0.000108
  7159.472  7159.490  0.500  4.527369  179.286  1.937919  0.000027
  7164.337  7164.360  0.500  4.520817  178.951  1.947011  0.000257
  7169.233  7169.250  0.500  4.512186  178.553  1.959520  -0.000001
  7174.139  7174.160  0.500  4.503626  178.129  1.971676  -0.000007
  7179.075  7179.090  0.500  4.495880  177.785  1.983167  0.000017