File: docs/_static/March2024/BMM/Mn_Rhodocrosite.001
# XDI/1.0 BlueSky/1.11.0 BMM/2023-2.1-py310-tiled
# Beamline.name: BMM (06BM) -- Beamline for Materials Measurement (NIST)
# Beamline.xray_source: NSLS-II three-pole wiggler
# Beamline.collimation: paraboloid mirror, 5 nm Rh on 30 nm Pt
# Beamline.focusing: not in use
# Beamline.harmonic_rejection: flat mirror, Si stripe, pitch = 7.0 mrad relative to beam
# Beamline.software: Bluesky 1.11.0, Ophyd 1.8.0, DataBroker 2.0.0b23, Python 3.10.8, 2023-2.1-py310-tiled
# Detector.I0: 10 cm N2
# Detector.I1: 25 cm N2
# Detector.I2: 25 cm N2
# Element.symbol: Mn
# Element.edge: K
# Element.reference: Mn
# Element.reference_material: Mn metal powder
# Facility.name: NSLS-II
# Facility.energy: 3.0
# Facility.current: 399.9
# Facility.mode: top-off
# Facility.GUP: 315355
# Facility.SAF: 313563
# Facility.cycle: 2024-1
# Mono.name: Si(111)
# Mono.d_spacing: 3.13542
# Mono.encoder_resolution: 0.0000050 deg/ct
# Mono.angle_offset: 16.0892 deg
# Mono.scan_mode: pseudo channel cut
# Mono.scan_type: step
# Mono.direction: forward in energy
# Sample.name: MnCO3
# Sample.prep: PEG pellet
# Sample.x: 90.051 mm
# Sample.y: 81.516 mm
# Sample.SDD_position: 205.000 mm
# Scan.experimenters: XAS course 2024
# Scan.edge_energy: 6539.0
# Scan.start_time: 2024-03-21T10:42:48
# Scan.end_time: 2024-03-21T10:49:47
# Scan.transient_id: 5307
# Scan.uid: 2733b962-47b7-45e2-ba78-430a0dd78357
# Scan.hdf5file: None
# Scan.plot_hint: ln(I0/It)  --  ln($5/$6)
# Column.1: energy eV
# Column.2: requested_energy eV
# Column.3: measurement_time seconds
# Column.4: xmu
# Column.5: I0 nA
# Column.6: It nA
# Column.7: Ir nA
# ///////////
# Welcome to BMM
# -----------
# energy  requested_energy  measurement_time  xmu  I0  It  Ir
  6338.889  6339.000  0.500  5.657009  209.016  0.730081  0.003700
  6349.013  6349.000  0.500  5.635439  209.24  0.746801  0.003792
  6359.015  6359.000  0.500  5.615031  209.428  0.762882  0.003933
  6369.020  6369.000  0.500  5.592033  209.47  0.780789  0.003817
  6379.011  6379.000  0.500  5.570650  209.642  0.798318  0.004323
  6389.017  6389.000  0.500  5.548307  209.648  0.816378  0.004302
  6399.016  6399.000  0.500  5.527544  209.797  0.834100  0.004395
  6409.014  6409.000  0.500  5.504732  209.857  0.853590  0.004594
  6419.016  6419.000  0.500  5.485614  210.103  0.871084  0.004634
  6429.014  6429.000  0.500  5.463520  209.947  0.889883  0.004869
  6439.008  6439.000  0.500  5.442928  210.039  0.908798  0.005322
  6449.010  6449.000  0.500  5.423894  209.497  0.923871  0.005309
  6458.984  6459.000  0.500  5.404320  208.861  0.939270  0.005446
  6468.994  6469.000  0.500  5.387674  210.864  0.964197  0.005581
  6478.992  6479.000  0.500  5.367183  210.847  0.984076  0.005575
  6488.997  6489.000  0.500  5.347862  210.967  1.003848  0.005897
  6499.004  6499.000  0.500  5.329290  211.107  1.023346  0.005967
  6509.004  6509.000  0.500  5.309310  211.029  1.043612  0.005797
  6511.002  6511.000  0.500  5.306529  211.112  1.046927  0.005862
  6512.992  6513.000  0.500  5.302211  211.057  1.051185  0.006176
  6514.992  6515.000  0.500  5.299837  211.11  1.053948  0.005925
  6516.989  6517.000  0.500  5.295757  211.066  1.058034  0.006020
  6518.992  6519.000  0.500  5.293279  211.2  1.061334  0.005990
  6520.989  6521.000  0.500  5.288306  211.077  1.066003  0.006007
  6522.998  6523.000  0.500  5.285195  211.077  1.069328  0.006306
  6524.994  6525.000  0.500  5.283639  211.244  1.071836  0.006170
  6526.995  6527.000  0.500  5.280873  211.182  1.074491  0.006373
  6528.995  6529.000  0.500  5.276914  211.036  1.078008  0.005853
  6529.288  6529.300  0.500  5.278476  211.186  1.077093  0.005956
  6529.584  6529.600  0.500  5.277630  211.134  1.077737  0.005889
  6529.883  6529.900  0.500  5.278057  211.173  1.077475  0.005772
  6530.183  6530.200  0.500  5.275086  210.952  1.079552  0.005910
  6530.484  6530.500  0.500  5.275243  210.97  1.079475  0.005853
  6530.784  6530.800  0.500  5.274652  210.973  1.080130  0.005860
  6531.087  6531.100  0.500  5.274031  210.898  1.080411  0.005633
  6531.385  6531.400  0.500  5.274329  210.946  1.080337  0.006054
  6531.683  6531.700  0.500  5.273926  210.929  1.080687  0.005751
  6531.984  6532.000  0.500  5.274405  210.946  1.080256  0.006018
  6532.286  6532.300  0.500  5.275710  211.084  1.079553  0.005770
  6532.589  6532.600  0.500  5.274114  210.922  1.080448  0.005976
  6532.889  6532.900  0.500  5.274763  210.983  1.080060  0.005881
  6533.191  6533.200  0.500  5.274965  210.989  1.079872  0.005669
  6533.492  6533.500  0.500  5.273911  210.879  1.080445  0.005367
  6533.789  6533.800  0.500  5.275050  211.02  1.079936  0.005573
  6534.089  6534.100  0.500  5.274464  211.612  1.083600  0.005397
  6534.392  6534.400  0.500  5.274053  211.583  1.083899  0.005627
  6534.688  6534.700  0.500  5.272781  211.462  1.084660  0.005354
  6534.990  6535.000  0.500  5.274046  211.574  1.083861  0.005175
  6535.290  6535.300  0.500  5.274274  211.486  1.083160  0.005230
  6535.596  6535.600  0.500  5.273706  211.375  1.083211  0.005011
  6535.894  6535.900  0.500  5.274375  211.421  1.082720  0.004890
  6536.198  6536.200  0.500  5.274772  211.397  1.082167  0.004913
  6536.496  6536.500  0.500  5.275468  211.48  1.081839  0.004648
  6536.798  6536.800  0.500  5.273940  211.257  1.082353  0.004318
  6537.098  6537.100  0.500  5.275797  211.327  1.080700  0.003989
  6537.400  6537.400  0.500  5.277206  211.358  1.079336  0.003438
  6537.701  6537.700  0.500  5.278890  211.353  1.077498  0.002836
  6537.999  6538.000  0.500  5.282935  211.466  1.073721  0.002071
  6538.294  6538.300  0.500  5.285750  211.387  1.070300  0.001629
  6538.596  6538.600  0.500  5.290785  211.274  1.064356  0.001096
  6538.899  6538.900  0.500  5.299312  211.416  1.056029  0.000913
  6539.199  6539.200  0.500  5.305484  211.3  1.048956  0.000746
  6539.501  6539.500  0.500  5.309939  211.293  1.044261  0.000480
  6539.800  6539.800  0.500  5.313375  211.446  1.041430  0.000402
  6540.099  6540.100  0.500  5.311409  211.35  1.043005  0.000651
  6540.396  6540.400  0.500  5.307605  211.105  1.045768  0.000418
  6540.696  6540.700  0.500  5.304739  211.199  1.049235  0.000437
  6540.998  6541.000  0.500  5.302682  211.285  1.051825  0.000450
  6541.297  6541.300  0.500  5.302450  211.266  1.051974  0.000464
  6541.596  6541.600  0.500  5.303375  211.144  1.050392  0.000186
  6541.899  6541.900  0.500  5.307487  211.217  1.046443  0.000409
  6542.196  6542.200  0.500  5.312268  211.172  1.041231  0.000358
  6542.500  6542.500  0.500  5.319399  211.2  1.033972  0.000305
  6542.801  6542.800  0.500  5.329048  211.306  1.024556  0.000384
  6543.100  6543.100  0.500  5.339887  211.212  1.013062  0.000452
  6543.403  6543.400  0.500  5.356035  211.104  0.996322  0.000293
  6543.698  6543.700  0.500  5.380003  211.123  0.972816  0.000235
  6543.999  6544.000  0.500  5.415363  211.331  0.939942  0.000155
  6544.300  6544.300  0.500  5.460112  211.295  0.898655  0.000129
  6544.599  6544.600  0.500  5.512282  211.223  0.852682  0.000103
  6544.902  6544.900  0.500  5.568856  211.254  0.805900  0.000048
  6545.201  6545.200  0.500  5.624006  211.254  0.762659  -0.000014
  6545.500  6545.500  0.500  5.675915  211.262  0.724108  0.000116
  6545.801  6545.800  0.500  5.728902  211.197  0.686526  0.000059
  6546.100  6546.100  0.500  5.789968  211.223  0.645936  -0.000091
  6546.403  6546.400  0.500  5.863900  211.262  0.600014  0.000103
  6546.697  6546.700  0.500  5.946961  211.253  0.552166  -0.000192
  6546.998  6547.000  0.500  6.043840  211.201  0.501059  -0.000072
  6547.294  6547.300  0.500  6.149198  211.164  0.450876  0.000079
  6547.597  6547.600  0.500  6.268019  211.245  0.400517  0.000402
  6547.899  6547.900  0.500  6.395178  211.284  0.352757  0.000091
  6548.198  6548.200  0.500  6.526047  211.144  0.309280  -0.000125
  6548.503  6548.500  0.500  6.663503  211.243  0.269687  -0.000235
  6548.801  6548.800  0.500  6.798490  211.383  0.235788  0.000033
  6549.104  6549.100  0.500  6.920731  211.224  0.208501  -0.000163
  6549.402  6549.400  0.500  7.018623  211.381  0.189198  0.000020
  6549.703  6549.700  0.500  7.082125  211.392  0.177567  -0.000011
  6549.999  6550.000  0.500  7.113151  211.429  0.172172  -0.000116
  6550.295  6550.300  0.500  7.123711  211.429  0.170364  -0.000030
  6550.600  6550.600  0.500  7.125571  211.456  0.170069  -0.000133
  6550.898  6550.900  0.500  7.120239  211.49  0.171005  0.000093
  6551.202  6551.200  0.500  7.109181  211.491  0.172907  -0.000201
  6551.503  6551.500  0.500  7.090247  211.488  0.176210  0.000152
  6551.803  6551.800  0.500  7.062996  211.388  0.180992  0.000035
  6552.099  6552.100  0.500  7.029541  211.444  0.187200  -0.000229
  6552.403  6552.400  0.500  6.989515  211.49  0.194887  -0.000214
  6552.699  6552.700  0.500  6.943470  211.505  0.204084  -0.000238
  6552.999  6553.000  0.500  6.890691  211.49  0.215130  -0.000256
  6553.301  6553.300  0.500  6.834591  211.584  0.227645  0.000137
  6553.599  6553.600  0.500  6.773621  211.607  0.241982  -0.000107
  6553.901  6553.900  0.500  6.711222  211.664  0.257632  -0.000008
  6554.201  6554.200  0.500  6.649554  211.814  0.274214  0.000144
  6554.501  6554.500  0.500  6.588933  211.656  0.291134  -0.000193
  6554.801  6554.800  0.500  6.539112  211.779  0.306184  -0.000355
  6555.105  6555.100  0.500  6.500215  211.768  0.318311  -0.000073
  6555.405  6555.400  0.500  6.472298  211.724  0.327255  -0.000218
  6555.700  6555.700  0.500  6.453516  211.78  0.333548  -0.000007
  6556.002  6556.000  0.500  6.437911  211.71  0.338682  0.000060
  6556.297  6556.300  0.500  6.428112  211.793  0.342151  -0.000127
  6556.599  6556.600  0.500  6.418096  211.708  0.345457  -0.000104
  6556.899  6556.900  0.500  6.413331  211.746  0.347169  -0.000212
  6557.202  6557.200  0.500  6.412961  211.673  0.347178  -0.000240
  6557.504  6557.500  0.500  6.419742  211.765  0.344982  -0.000124
  6557.804  6557.800  0.500  6.429841  211.724  0.341448  -0.000074
  6558.106  6558.100  0.500  6.448106  211.879  0.335514  -0.000229
  6558.401  6558.400  0.500  6.468516  211.666  0.328405  0.000111
  6558.702  6558.700  0.500  6.494624  211.715  0.320017  0.000057
  6558.997  6559.000  0.500  6.523095  211.779  0.311128  -0.000223
  6559.299  6559.300  0.500  6.551860  211.913  0.302496  0.000049
  6559.602  6559.600  0.500  6.576587  211.843  0.295011  -0.000365
  6559.899  6559.900  0.500  6.597676  211.69  0.288646  -0.000006
  6560.207  6560.200  0.500  6.616840  211.704  0.283186  -0.000214
  6560.502  6560.500  0.500  6.628612  211.523  0.279633  -0.000164
  6560.808  6560.800  0.500  6.636249  211.479  0.277448  -0.000089
  6561.103  6561.100  0.500  6.641158  211.56  0.276195  -0.000178
  6561.404  6561.400  0.500  6.639971  211.593  0.276566  0.000100
  6561.705  6561.700  0.500  6.638517  211.863  0.277322  0.000059
  6562.002  6562.000  0.500  6.633513  211.93  0.278801  0.000094
  6562.303  6562.300  0.500  6.622672  211.905  0.281807  -0.000122
  6562.606  6562.600  0.500  6.610186  211.862  0.285289  -0.000048
  6562.906  6562.900  0.500  6.595342  211.973  0.289707  -0.000017
  6563.204  6563.200  0.500  6.578239  212.039  0.294797  0.000026
  6563.503  6563.500  0.500  6.558925  211.941  0.300407  0.000053
  6563.804  6563.800  0.500  6.538623  211.836  0.306417  -0.000138
  6564.003  6564.000  0.500  6.526365  212.029  0.310478  -0.000136
  6565.008  6564.990  0.500  6.451558  212.002  0.334551  -0.000209
  6566.002  6565.990  0.500  6.358740  211.92  0.366950  -0.000152
  6567.033  6567.010  0.500  6.282505  212.086  0.396329  -0.000149
  6568.063  6568.060  0.500  6.216471  211.904  0.423019  -0.000393
  6569.120  6569.120  0.500  6.149134  211.813  0.452291  -0.000092
  6570.195  6570.200  0.500  6.091082  211.674  0.479009  0.000050
  6571.304  6571.300  0.500  6.056347  211.788  0.496207  0.000080
  6572.422  6572.420  0.500  6.040065  211.961  0.504765  0.000013
  6573.567  6573.560  0.500  6.033511  211.95  0.508059  -0.000163
  6574.717  6574.710  0.500  6.036482  212.035  0.506754  -0.000138
  6575.895  6575.890  0.500  6.048242  212.03  0.500816  0.000007
  6577.082  6577.080  0.500  6.063823  211.752  0.492428  -0.000148
  6578.304  6578.300  0.500  6.088910  211.872  0.480501  -0.000194
  6579.532  6579.530  0.500  6.119025  211.826  0.466145  0.000065
  6580.790  6580.780  0.500  6.158289  211.782  0.448104  -0.000281
  6582.061  6582.050  0.500  6.207415  211.95  0.426960  0.000122
  6583.348  6583.340  0.500  6.252862  211.828  0.407755  -0.000297
  6584.659  6584.650  0.500  6.289179  211.932  0.393406  -0.000266
  6585.982  6585.980  0.500  6.304521  211.914  0.387382  -0.000172
  6587.338  6587.330  0.500  6.309791  211.463  0.384527  -0.000047
  6588.708  6588.700  0.500  6.321411  211.851  0.380782  -0.000052
  6590.087  6590.080  0.500  6.337057  211.909  0.374974  0.000148
  6591.504  6591.490  0.500  6.353624  211.898  0.368793  -0.000194
  6592.917  6592.910  0.500  6.372432  211.905  0.361934  -0.000040
  6594.368  6594.350  0.500  6.396472  211.922  0.353365  -0.000060
  6595.812  6595.810  0.500  6.405080  211.982  0.350436  -0.000219
  6597.301  6597.290  0.500  6.377451  211.756  0.359868  0.000011
  6598.794  6598.790  0.500  6.348962  211.852  0.370435  -0.000276
  6600.318  6600.310  0.500  6.318951  211.832  0.381685  -0.000122
  6601.855  6601.850  0.500  6.294683  211.546  0.390534  -0.000251
  6603.419  6603.410  0.500  6.283609  211.8  0.395357  -0.000119
  6604.988  6604.980  0.500  6.278663  211.885  0.397477  -0.000292
  6606.591  6606.580  0.500  6.273193  211.787  0.399472  -0.000255
  6608.198  6608.190  0.500  6.271799  211.945  0.400328  -0.000051
  6609.842  6609.830  0.500  6.268757  212.019  0.401687  -0.000127
  6611.489  6611.480  0.500  6.260532  211.905  0.404788  0.000035
  6613.160  6613.150  0.500  6.249724  212.034  0.409434  -0.000050
  6614.844  6614.840  0.500  6.234185  212.041  0.415861  0.000039
  6616.566  6616.550  0.500  6.211984  211.781  0.424676  -0.000034
  6618.288  6618.280  0.500  6.189754  211.762  0.434182  -0.000080
  6620.040  6620.030  0.500  6.168060  211.656  0.443481  0.000134
  6621.799  6621.790  0.500  6.153128  211.777  0.450411  -0.000240
  6623.588  6623.580  0.500  6.144273  211.664  0.454176  -0.000331
  6625.394  6625.380  0.500  6.142518  212.141  0.455998  -0.000078
  6627.220  6627.210  0.500  6.146927  212.319  0.454372  -0.000217
  6629.065  6629.050  0.500  6.150692  211.87  0.451707  -0.000135
  6630.922  6630.910  0.500  6.154388  212.463  0.451301  -0.000084
  6632.796  6632.790  0.500  6.150083  212.446  0.453212  -0.000131
  6634.702  6634.690  0.500  6.145728  212.499  0.455304  0.000035
  6636.618  6636.610  0.500  6.143354  212.433  0.456244  -0.000217
  6638.558  6638.550  0.500  6.144098  212.283  0.455584  -0.000215
  6640.518  6640.510  0.500  6.149404  212.345  0.453305  -0.000091
  6642.491  6642.480  0.500  6.146580  212.139  0.454145  -0.000212
  6644.487  6644.480  0.500  6.144493  212.212  0.455250  -0.000039
  6646.500  6646.490  0.500  6.139572  212.251  0.457580  -0.000222
  6648.530  6648.520  0.500  6.139643  212.427  0.457926  0.000015
  6650.585  6650.580  0.500  6.139007  212.331  0.458011  0.000024
  6652.666  6652.650  0.500  6.141809  212.464  0.457017  0.000005
  6654.752  6654.740  0.500  6.137917  212.342  0.458534  -0.000059
  6656.862  6656.850  0.500  6.134913  212.358  0.459949  -0.000169
  6658.992  6658.980  0.500  6.129551  212.348  0.462400  -0.000096
  6661.132  6661.120  0.500  6.125302  212.243  0.464139  -0.000384
  6663.293  6663.290  0.500  6.121777  212.222  0.465732  0.000141
  6665.485  6665.480  0.500  6.119538  212.217  0.466765  -0.000107
  6667.692  6667.680  0.500  6.119037  212.257  0.467087  -0.000396
  6669.910  6669.900  0.500  6.120501  212.366  0.466644  0.000163
  6672.155  6672.150  0.500  6.121529  212.247  0.465903  -0.000003
  6674.419  6674.410  0.500  6.122161  212.226  0.465562  -0.000217
  6676.702  6676.690  0.500  6.120042  212.26  0.466624  0.000006
  6678.997  6678.990  0.500  6.111474  212.269  0.470661  -0.000201
  6681.315  6681.310  0.500  6.096418  212.071  0.477354  0.000006
  6683.661  6683.650  0.500  6.081595  212.146  0.484655  -0.000117
  6686.018  6686.000  0.500  6.066992  212.186  0.491875  -0.000164
  6688.394  6688.380  0.500  6.050569  212.074  0.499757  0.000069
  6690.781  6690.770  0.500  6.035684  212.051  0.507197  -0.000221
  6693.202  6693.190  0.500  6.025210  212.174  0.512834  0.000045
  6695.636  6695.620  0.500  6.013804  212.014  0.518327  -0.000302
  6698.079  6698.070  0.500  6.010441  212.208  0.520547  -0.000179
  6700.559  6700.550  0.500  6.010075  212.174  0.520655  0.000045
  6703.050  6703.040  0.500  6.009508  211.988  0.520494  -0.000014
  6705.565  6705.550  0.500  6.008000  211.953  0.521194  -0.000324
  6708.086  6708.070  0.500  6.002807  211.911  0.523802  -0.000179
  6710.632  6710.620  0.500  5.996285  211.949  0.527324  -0.000172
  6713.205  6713.190  0.500  5.990454  211.957  0.530427  -0.000238
  6715.780  6715.770  0.500  5.983215  211.818  0.533932  -0.000149
  6718.388  6718.380  0.500  5.978368  211.693  0.536209  -0.000066
  6721.014  6721.000  0.500  5.974127  211.763  0.538667  -0.000240
  6723.666  6723.650  0.500  5.966804  211.709  0.542487  0.000002
  6726.318  6726.310  0.500  5.961102  211.742  0.545673  -0.000145
  6729.014  6728.990  0.500  5.950541  211.482  0.550789  -0.000371
  6731.720  6731.690  0.500  5.942509  211.405  0.555030  -0.000221
  6734.423  6734.410  0.500  5.935196  211.421  0.559146  0.000001
  6737.159  6737.150  0.500  5.929234  211.405  0.562448  -0.000073
  6739.896  6739.900  0.500  5.924806  211.343  0.564777  -0.000151
  6742.694  6742.680  0.500  5.923584  211.389  0.565591  -0.000009
  6745.485  6745.470  0.500  5.918350  211.152  0.567922  -0.000272
  6748.320  6748.290  0.500  5.913144  211.112  0.570777  -0.000039
  6751.133  6751.120  0.500  5.910046  211.195  0.572773  -0.000037
  6753.968  6753.970  0.500  5.903974  211.067  0.575914  -0.000002
  6756.847  6756.850  0.500  5.896869  210.791  0.579260  -0.000087
  6759.748  6759.740  0.500  5.894270  210.757  0.580676  -0.000282
  6762.652  6762.650  0.500  5.890360  210.738  0.582898  -0.000281
  6765.570  6765.570  0.500  5.882597  210.598  0.587050  -0.000293
  6768.534  6768.520  0.500  5.876554  210.629  0.590696  -0.000091
  6771.488  6771.490  0.500  5.866977  210.465  0.595915  0.000117
  6774.495  6774.470  0.500  5.858816  210.46  0.600784  -0.000083
  6777.475  6777.480  0.500  5.847320  210.259  0.607149  -0.000142
  6780.505  6780.500  0.500  5.837628  210.283  0.613133  0.000035
  6783.575  6783.550  0.500  5.825674  210.052  0.619825  -0.000233
  6786.610  6786.610  0.500  5.818134  210.078  0.624594  -0.000230
  6789.691  6789.690  0.500  5.809240  209.841  0.629462  -0.000102
  6792.794  6792.790  0.500  5.797485  207.375  0.629420  -0.000113
  6795.909  6795.910  0.500  5.792069  208.758  0.637058  -0.000056
  6799.054  6799.050  0.500  5.786080  209.301  0.642552  -0.000284
  6802.201  6802.200  0.500  5.778665  209.251  0.647181  -0.000086
  6805.403  6805.380  0.500  5.769134  209.105  0.652924  -0.000286
  6808.595  6808.570  0.500  5.763429  209.269  0.657173  -0.000056
  6811.780  6811.790  0.500  5.745834  195.666  0.625360  -0.000165
  6815.013  6815.020  0.500  5.749582  207.745  0.661485  -0.000214
  6818.262  6818.270  0.500  5.740634  208.025  0.668327  -0.000282
  6821.545  6821.550  0.500  5.728702  205.281  0.667429  0.000240
  6824.849  6824.840  0.500  5.735105  206.48  0.667044  -0.000043
  6828.146  6828.150  0.500  5.727609  206.999  0.673750  -0.000095
  6831.467  6831.470  0.500  5.722027  206.893  0.677176  -0.000081
  6834.824  6834.820  0.500  5.716009  206.702  0.680633  -0.000178
  6838.183  6838.190  0.500  5.709455  205.839  0.682249  -0.000167
  6841.593  6841.570  0.500  5.709794  192.451  0.637660  -0.000215
  6845.005  6844.980  0.500  5.689587  205.872  0.696052  -0.000013
  6848.392  6848.400  0.500  5.677428  205.786  0.704270  -0.000014
  6851.844  6851.850  0.500  5.669975  205.574  0.708808  -0.000076
  6855.298  6855.310  0.500  5.661001  205.452  0.714774  -0.000212
  6858.784  6858.790  0.500  5.654782  205.308  0.718730  -0.000250
  6862.297  6862.290  0.500  5.646216  204.548  0.722227  0.000172
  6865.824  6865.810  0.500  5.639471  204.785  0.727961  -0.000105
  6869.334  6869.350  0.500  5.632225  204.554  0.732426  -0.000088
  6872.891  6872.900  0.500  5.624582  204.329  0.737234  0.000093
  6876.471  6876.480  0.500  5.614012  203.897  0.743491  -0.000219
  6880.069  6880.080  0.500  5.609704  203.826  0.746442  -0.000103
  6883.683  6883.690  0.500  5.599159  203.408  0.752808  -0.000286
  6887.309  6887.320  0.500  5.592425  203.263  0.757356  -0.000002
  6890.967  6890.980  0.500  5.585055  203.048  0.762150  0.000221
  6894.637  6894.650  0.500  5.573727  202.567  0.769006  -0.000132
  6898.326  6898.340  0.500  5.563635  202.244  0.775568  0.000013
  6902.046  6902.050  0.500  5.552988  201.889  0.782493  -0.000223
  6905.761  6905.780  0.500  5.546463  201.678  0.786792  -0.000241
  6909.504  6909.520  0.500  5.534392  201.133  0.794197  -0.000096
  6913.282  6913.290  0.500  5.527726  200.793  0.798157  -0.000035
  6917.072  6917.080  0.500  5.520391  200.469  0.802735  -0.000176
  6920.871  6920.880  0.500  5.512082  200.104  0.807957  -0.000002
  6924.710  6924.710  0.500  5.502696  199.697  0.813919  0.000117
  6928.544  6928.550  0.500  5.494594  199.364  0.819170  -0.000028
  6932.393  6932.410  0.500  5.487906  199.019  0.823241  0.000147
  6936.274  6936.290  0.500  5.476809  198.594  0.830652  -0.000145
  6940.178  6940.190  0.500  5.469357  198.319  0.835706  0.000009
  6944.101  6944.110  0.500  5.457166  197.743  0.843497  0.000090
  6948.045  6948.050  0.500  5.452084  197.531  0.846887  0.000017
  6951.996  6952.010  0.500  5.442507  197.097  0.853160  0.000105
  6955.972  6955.980  0.500  5.435138  196.769  0.858037  0.000126
  6959.990  6959.980  0.500  5.425918  196.343  0.864110  0.000035
  6963.994  6963.990  0.500  5.415248  195.908  0.871447  -0.000185
  6968.042  6968.030  0.500  5.408153  195.605  0.876292  -0.000179
  6972.096  6972.080  0.500  5.398695  195.226  0.882905  0.000012
  6976.166  6976.150  0.500  5.390067  194.891  0.889029  -0.000194
  6980.258  6980.240  0.500  5.382122  194.499  0.894316  0.000113
  6984.365  6984.350  0.500  5.374058  194.078  0.899605  0.000106
  6988.479  6988.480  0.500  5.364823  193.67  0.906043  -0.000155
  6992.652  6992.630  0.500  5.356779  193.328  0.911749  -0.000062
  6996.807  6996.790  0.500  5.348364  192.88  0.917325  -0.000079
  7000.986  7000.980  0.500  5.341249  192.599  0.922527  0.000262
  7005.197  7005.180  0.500  5.330023  192.099  0.930521  0.000186
  7009.395  7009.410  0.500  5.320589  191.79  0.937827  0.000110
  7013.665  7013.650  0.500  5.311385  191.405  0.944600  -0.000150
  7017.896  7017.910  0.500  5.302313  190.932  0.950853  0.000128
  7022.183  7022.190  0.500  5.291202  190.481  0.959204  -0.000155
  7026.478  7026.490  0.500  5.283067  190.113  0.965170  -0.000097
  7030.807  7030.810  0.500  5.275684  189.695  0.970186  0.000128
  7035.150  7035.150  0.500  5.267545  189.254  0.975841  -0.000155
  7039.497  7039.510  0.500  5.260450  188.958  0.981255  -0.000176
  7043.876  7043.890  0.500  5.247255  188.447  0.991596  0.000032
  7048.287  7048.280  0.500  5.241055  188.15  0.996190  0.000112
  7052.682  7052.700  0.500  5.230524  187.746  1.004578  0.000095
  7057.108  7057.130  0.500  5.222385  187.439  1.011131  0.000137
  7061.564  7061.580  0.500  5.210870  186.66  1.018592  -0.000099
  7066.035  7066.050  0.500  5.202174  186.686  1.027629  -0.000087
  7070.530  7070.540  0.500  5.197443  184.957  1.022938  -0.000075
  7075.033  7075.050  0.500  5.185277  184.287  1.031708  0.000128
  7079.569  7079.580  0.500  5.177457  185.503  1.046670  -0.000041
  7084.115  7084.130  0.500  5.168971  184.888  1.052092  -0.000123
  7088.687  7088.700  0.500  5.160995  184.84  1.060238  -0.000090
  7093.263  7093.280  0.500  5.151717  184.446  1.067842  -0.000227
  7097.882  7097.890  0.500  5.141227  184.191  1.077611  0.000068
  7102.493  7102.510  0.500  5.130261  184.557  1.091656  -0.000002
  7107.150  7107.160  0.500  5.118743  184.288  1.102696  -0.000155
  7111.807  7111.820  0.500  5.111313  183.794  1.107944  -0.000156
  7116.482  7116.500  0.500  5.105689  183.305  1.111224  0.000175
  7121.182  7121.200  0.500  5.097926  182.791  1.116744  -0.000011
  7125.900  7125.920  0.500  5.090423  182.272  1.121961  -0.000165
  7130.641  7130.660  0.500  5.080810  181.652  1.128946  -0.000131
  7135.399  7135.410  0.500  5.071949  181.295  1.136756  -0.000192
  7140.176  7140.190  0.500  5.062391  180.879  1.145037  -0.000084
  7144.982  7144.990  0.500  5.055100  180.593  1.151594  0.000049
  7149.781  7149.800  0.500  5.046334  180.295  1.159815  0.000000
  7154.615  7154.630  0.500  5.036584  180.025  1.169424  -0.000001
  7159.465  7159.490  0.500  5.026516  179.526  1.177982  0.000188
  7164.342  7164.360  0.500  5.019503  179.347  1.185091  0.000091
  7169.227  7169.250  0.500  5.012152  178.961  1.191267  0.000124
  7174.141  7174.160  0.500  5.002751  178.638  1.200344  0.000029
  7179.075  7179.090  0.500  4.992717  178.245  1.209784  0.000108