File: docs/_static/March2024/BMM/Zn_Petedunnite.001
# XDI/1.0 BlueSky/1.11.0 BMM/2023-2.1-py310-tiled
# Beamline.name: BMM (06BM) -- Beamline for Materials Measurement (NIST)
# Beamline.xray_source: NSLS-II three-pole wiggler
# Beamline.collimation: paraboloid mirror, 5 nm Rh on 30 nm Pt
# Beamline.focusing: not in use
# Beamline.harmonic_rejection: flat mirror, Pt stripe, pitch = 7.0 mrad relative to beam
# Beamline.software: Bluesky 1.11.0, Ophyd 1.8.0, DataBroker 2.0.0b23, Python 3.10.8, 2023-2.1-py310-tiled
# Detector.I0: 10 cm N2
# Detector.I1: 25 cm N2
# Detector.I2: 25 cm N2
# Detector.fluorescence: SII Vortex ME4 (4-element silicon drift)
# Detector.deadtime_correction: Xspress3
# Element.symbol: Zn
# Element.edge: K
# Element.reference: Zn
# Element.reference_material: Zn foil
# Facility.name: NSLS-II
# Facility.energy: 3.0
# Facility.current: 400.5
# Facility.mode: top-off
# Facility.GUP: 315355
# Facility.SAF: 313563
# Facility.cycle: 2024-1
# Mono.name: Si(111)
# Mono.d_spacing: 3.13542
# Mono.encoder_resolution: 0.0000050 deg/ct
# Mono.angle_offset: 16.0892 deg
# Mono.scan_mode: pseudo channel cut
# Mono.scan_type: step
# Mono.direction: forward in energy
# Sample.name: Ca(Zn,Mn,Fe,Mg)Si2O6
# Sample.prep: powder on tape
# Sample.x: 113.234 mm
# Sample.y: 81.177 mm
# Sample.SDD_position: 53.000 mm
# Scan.experimenters: Bruce Ravel
# Scan.edge_energy: 9658.6
# Scan.start_time: 2024-03-21T14:17:02
# Scan.end_time: 2024-03-21T14:26:59
# Scan.transient_id: 5346
# Scan.uid: 29689920-dc6b-424a-b1d8-14e98cce49f8
# Scan.hdf5file: 2024/03/21/e36c9c17-91e3-42f2-855f_000000.h5
# Scan.plot_hint: (Zn1+Zn2+Zn3+Zn4)/I0  --  ($8+$9+$10+$11)/$5
# Column.1: energy eV
# Column.2: requested_energy eV
# Column.3: measurement_time seconds
# Column.4: xmu
# Column.5: I0 nA
# Column.6: It nA
# Column.7: Ir nA
# Column.8: Zn1
# Column.9: Zn2
# Column.10: Zn3
# Column.11: Zn4
# ///////////
# sample courtesy Martin Stennett, University of Sheffield
# -----------
# energy  requested_energy  measurement_time  xmu  I0  It  Ir  Zn1  Zn2  Zn3  Zn4
  9458.629  9458.600  1.000  26.5969  394.12  131.768  68.5061  3680.58  3531.32  1443.94  1826.52
  9468.621  9468.600  1.000  25.1968  393.026  131.807  68.6921  3493.82  3309.97  1366.83  1732.38
  9478.694  9478.600  1.000  24.3848  392.194  131.945  68.9182  3380.69  3158.77  1371.85  1652.28
  9488.657  9488.600  1.000  24.459  390.814  131.869  69.0552  3325.93  3178.8  1384.87  1669.3
  9498.625  9498.600  1.000  23.7117  390.252  132.102  69.3049  3232.87  3178.8  1255.69  1586.2
  9508.619  9508.600  1.000  22.5686  389.276  132.176  69.4957  3062.17  2939.46  1204.62  1579.19
  9518.630  9518.600  1.000  21.987  388.201  132.206  69.6718  3012.37  2762.2  1181.6  1579.19
  9528.631  9528.600  1.000  21.5662  387.036  132.198  69.8292  2938.01  2760.22  1169.59  1479.06
  9538.631  9538.600  1.000  21.1803  386.146  132.281  70.0322  2870.97  2724.16  1176.6  1406.96
  9548.636  9548.600  1.000  20.488  385.137  132.32  70.2072  2810.27  2576.95  1066.45  1437.01
  9558.631  9558.600  1.000  20.146  384.368  132.457  70.4212  2810.27  2576.95  1050.43  1305.82
  9568.616  9568.600  1.000  18.9422  383.509  132.547  70.6151  2556.59  2428.74  1010.38  1268.78
  9578.614  9578.600  1.000  18.9897  382.444  132.562  70.7778  2556.59  2428.74  1053.44  1223.72
  9588.618  9588.600  1.000  18.2787  381.403  132.578  70.9338  2434.85  2347.64  984.352  1204.7
  9598.615  9598.600  1.000  17.9034  380.404  132.608  71.0934  2408.01  2293.56  934.285  1174.66
  9608.582  9608.600  1.000  17.9357  379.717  132.763  71.2753  2408.01  2293.56  934.285  1174.66
  9618.594  9618.600  1.000  17.4912  378.519  132.719  71.3797  2350.44  2169.38  947.302  1153.63
  9628.592  9628.600  1.000  17.1328  377.265  132.636  71.4368  2242.38  2100.27  891.229  1229.74
  9630.590  9630.600  1.000  17.1388  376.931  132.578  71.4278  2279.97  2110.29  941.3  1128.6
  9632.582  9632.600  1.000  16.7261  376.814  132.623  71.4527  2226.57  2111.3  914.265  1050.49
  9634.582  9634.600  1.000  16.7625  376.477  132.581  71.4215  2244.67  2026.17  902.247  1137.62
  9636.584  9636.600  1.000  17.0244  376.279  132.581  71.4029  2242.75  2114.3  914.26  1134.61
  9638.578  9638.600  1.000  17.1975  376.315  132.676  71.4489  2250.39  2167.4  879.22  1174.67
  9640.581  9640.600  1.000  17.3129  375.995  132.641  71.4176  2306.34  2134.33  952.317  1116.59
  9642.573  9642.600  1.000  16.8219  376.06  132.743  71.4263  2159.82  2054.22  920.277  1191.71
  9644.574  9644.600  1.000  16.6785  375.684  132.678  71.3485  2166.76  2044.2  914.267  1140.62
  9646.587  9646.600  1.000  16.8977  375.666  132.742  71.3094  2219.77  2025.17  944.305  1158.65
  9648.590  9648.600  1.000  16.9127  374.339  132.347  71.0181  2159.87  2065.24  925.282  1180.68
  9648.863  9648.900  1.000  17.6626  374.346  132.361  70.999  2258.49  2105.29  994.374  1253.78
  9649.169  9649.200  1.000  17.6608  374.476  132.406  71.0083  2269.09  2163.38  958.327  1222.74
  9649.458  9649.500  1.000  17.6003  374.793  132.52  71.0431  2296.1  2053.21  1027.42  1219.74
  9649.768  9649.800  1.000  17.5733  374.789  132.554  71.0468  2315.92  2145.37  949.316  1175.67
  9650.070  9650.100  1.000  17.1316  374.899  132.589  71.0367  2187.36  2039.19  999.383  1196.7
  9650.376  9650.400  1.000  17.7821  374.933  132.623  71.0299  2183.41  2228.5  1071.49  1183.69
  9650.673  9650.700  1.000  17.6224  374.752  132.562  70.9834  2291.65  2120.32  1027.42  1164.66
  9650.975  9651.000  1.000  17.8161  374.866  132.612  70.9692  2257.11  2133.33  1029.43  1258.79
  9651.273  9651.300  1.000  17.7182  374.638  132.546  70.9155  2218.37  2162.38  1010.4  1246.78
  9651.579  9651.600  1.000  17.3875  374.847  132.639  70.9131  2219.25  2109.31  989.372  1199.71
  9651.885  9651.900  1.000  17.5615  374.724  132.613  70.8737  2239.27  2149.37  1029.43  1162.66
  9652.186  9652.200  1.000  17.4099  374.584  132.567  70.8166  2160  2093.27  1006.4  1261.8
  9652.476  9652.500  1.000  17.4605  374.703  132.627  70.8015  2160  2114.31  1006.4  1261.8
  9652.798  9652.800  1.000  17.7156  374.657  132.62  70.754  2246.78  2105.29  997.384  1287.83
  9653.088  9653.100  1.000  17.959  374.597  132.596  70.6943  2261.73  2184.42  1058.47  1222.75
  9653.394  9653.400  1.000  18.4975  374.429  132.57  70.6403  2312.15  2234.51  1110.54  1268.81
  9653.696  9653.700  1.000  18.0052  374.517  132.605  70.6028  2267.62  2137.35  1063.48  1274.82
  9653.990  9654.000  1.000  18.0034  374.334  132.546  70.523  2267.62  2200.45  1022.42  1248.78
  9654.300  9654.300  1.000  17.8682  375.132  132.843  70.6074  2244.3  2163.41  1022.42  1272.82
  9654.594  9654.600  1.000  18.1123  375.439  132.946  70.5955  2294.36  2103.3  1055.47  1346.93
  9654.908  9654.900  1.000  18.3901  375.372  132.931  70.5113  2287.23  2238.52  1100.54  1276.83
  9655.198  9655.200  1.000  18.391  375.352  132.935  70.4385  2287.23  2238.52  1100.54  1276.83
  9655.504  9655.500  1.000  18.6037  375.316  132.943  70.3496  2352.39  2155.39  1142.59  1331.91
  9655.798  9655.800  1.000  18.4692  375.303  132.948  70.2545  2300.68  2209.47  1137.58  1283.83
  9656.096  9656.100  1.000  18.9462  375.131  132.895  70.1268  2461.39  2198.46  1134.58  1312.88
  9656.398  9656.400  1.000  18.9614  375.105  132.907  70.0088  2340.4  2233.51  1158.61  1379.98
  9656.700  9656.700  1.000  19.2808  375.056  132.897  69.8747  2387.16  2218.49  1203.68  1422.04
  9656.999  9657.000  1.000  19.3981  375.158  132.942  69.7415  2461.2  2240.52  1207.68  1367.95
  9657.289  9657.300  1.000  19.6563  375.012  132.903  69.5697  2421.96  2303.64  1207.69  1438.07
  9657.595  9657.600  1.000  19.4612  374.973  132.901  69.3764  2348.05  2236.53  1273.78  1439.07
  9657.897  9657.900  1.000  19.4303  375.009  132.931  69.1663  2370.2  2250.55  1243.73  1422.04
  9658.199  9658.200  1.000  19.5951  374.767  132.843  68.8886  2348.15  2324.66  1227.71  1443.06
  9658.498  9658.500  1.000  20.437  374.881  132.897  68.6118  2428.65  2452.87  1283.79  1496.15
  9658.792  9658.800  1.000  20.2582  374.775  132.865  68.2415  2464.64  2315.64  1309.82  1502.15
  9659.094  9659.100  1.000  20.4527  374.861  132.92  67.8108  2503.24  2359.72  1317.84  1486.13
  9659.396  9659.400  1.000  20.9191  374.824  132.926  67.2674  2486.02  2489.91  1284.79  1580.26
  9659.691  9659.700  1.000  21.5692  374.772  132.925  66.5692  2726.61  2332.66  1413.97  1610.3
  9659.993  9660.000  1.000  21.5495  374.696  132.908  65.6502  2560.31  2474.9  1415.98  1623.32
  9660.295  9660.300  1.000  22.3127  374.581  132.877  64.4646  2548.27  2519.97  1519.12  1770.54
  9660.606  9660.600  1.000  22.2426  374.636  132.901  62.8321  2548.27  2525.99  1519.12  1739.5
  9660.900  9660.900  1.000  23.0703  374.588  132.892  60.8909  2692  2596.1  1571.2  1782.56
  9661.207  9661.200  1.000  23.9238  374.451  132.856  58.3888  2738.05  2648.18  1736.43  1835.64
  9661.501  9661.500  1.000  24.7202  374.327  132.819  55.6922  2752.78  2758.35  1745.44  1996.87
  9661.804  9661.800  1.000  25.5731  374.423  132.871  52.8579  2931.25  2871.54  1769.48  2002.88
  9662.106  9662.100  1.000  26.6976  374.209  132.793  50.0492  3099.21  2911.61  1853.6  2126.07
  9662.400  9662.400  1.000  28.1747  374.142  132.791  47.5653  3102.27  3048.83  2163.04  2227.21
  9662.711  9662.700  1.000  29.6908  374.17  132.802  45.3187  3308.75  3226.12  2176.06  2398.47
  9663.002  9663.000  1.000  31.7646  374.012  132.755  43.4724  3436.76  3441.44  2349.31  2652.83
  9663.304  9663.300  1.000  34.903  373.942  132.739  41.7867  3716.77  3709.89  2699.82  2925.24
  9663.611  9663.600  1.000  38.4365  374.136  132.81  40.3862  3983.95  4016.39  3096.37  3283.78
  9663.905  9663.900  1.000  42.9866  374.029  132.782  39.1469  4501.87  4486.17  3461.91  3628.28
  9664.204  9664.200  1.000  47.4305  373.961  132.768  38.0896  4875.88  4748.59  3902.56  4210.15
  9664.498  9664.500  1.000  52.9271  373.905  132.763  37.1947  5253.93  5181.29  4493.42  4861.1
  9664.801  9664.800  1.000  59.1477  373.778  132.716  36.4207  5911.66  5786.33  5106.31  5303.81
  9665.096  9665.100  1.000  65.2001  373.767  132.703  35.8016  5911.66  6585.65  5840.4  6031.91
  9665.398  9665.400  1.000  75.7608  373.793  132.721  35.2736  7218.76  7457.11  6693.68  6949.32
  9665.693  9665.700  1.000  84.3984  373.534  132.611  34.8175  7799.43  8317.56  7519.94  7888.77
  9665.992  9666.000  1.000  94.6242  373.531  132.611  34.4048  8719.04  9114.97  8554.56  8956.49
  9666.299  9666.300  1.000  107.397  373.624  132.635  34.0092  10016.4  10156.8  9732.42  10220.5
  9666.597  9666.600  1.000  115.561  373.542  132.596  33.5966  10686.1  10945.2  10568.8  10966.8
  9666.900  9666.900  1.000  127.691  373.346  132.526  33.1342  11635.5  12104.2  11744.6  12188.7
  9667.195  9667.200  1.000  136.268  373.106  132.431  32.6419  12423.6  12833.6  12772.3  12812.8
  9667.502  9667.500  1.000  144.293  372.784  132.314  32.0988  13147.7  13642  13312.2  13688.2
  9667.796  9667.800  1.000  147.502  372.662  132.286  31.5629  13147.7  14176  13312.2  14332.4
  9668.099  9668.100  1.000  152.352  372.367  132.181  31.016  13751.5  14175  14140.6  14663.9
  9668.394  9668.400  1.000  155.545  372.347  132.183  30.5049  13940.7  14498.6  14532.2  14945.4
  9668.701  9668.700  1.000  155.513  372.31  132.179  30.0321  13952.8  14582.8  14557.4  14806.2
  9669.000  9669.000  1.000  154.663  372.637  132.312  29.6061  13966.5  14522.7  14524.3  14619.9
  9669.295  9669.300  1.000  155.679  372.722  132.353  29.2139  13989.8  14687.9  14431  14916.4
  9669.618  9669.600  1.000  154.792  372.894  132.429  28.8326  14147.4  14514.6  14338  14721.1
  9669.901  9669.900  1.000  156.583  372.644  132.343  28.4749  14144.8  14597.9  14435.2  15171.9
  9670.204  9670.200  1.000  158.094  372.664  132.354  28.1393  14308.3  14743.1  14701.5  15162.8
  9670.503  9670.500  1.000  160.479  372.729  132.388  27.8424  14502.4  15011.6  14983  15318.1
  9670.802  9670.800  1.000  163.114  372.672  132.369  27.5842  14647.7  15176.9  15310.5  15652.7
  9671.101  9671.100  1.000  163.917  372.612  132.372  27.3786  14709.9  15345.2  15432.8  15589.5
  9671.404  9671.400  1.000  163.885  372.516  132.343  27.2359  14679  15334.2  15459.9  15576.6
  9671.711  9671.700  1.000  163.979  372.301  132.272  27.1641  14679  15334.2  15459.9  15576.6
  9671.998  9672.000  1.000  159.682  372.388  132.328  27.2027  14324.2  15002.6  14868.9  15268
  9672.293  9672.300  1.000  157.089  372.361  132.318  27.3299  14196  14735  14481.2  15081.6
  9672.604  9672.600  1.000  153.667  372.287  132.318  27.5748  13844  14381.4  14157.6  14825.2
  9672.883  9672.900  1.000  150.527  372.28  132.348  27.898  13844  14070.8  13973.3  14150.1
  9673.203  9673.200  1.000  146.147  372.186  132.318  28.3102  13173.1  13797.4  13471.6  13951.8
  9673.490  9673.500  1.000  142.591  372.156  132.327  28.774  12815.1  13450.7  13145  13655.2
  9673.793  9673.800  1.000  141.808  372.023  132.295  29.2597  12928.9  13276.3  13095.8  13454.9
  9674.104  9674.100  1.000  139.402  371.881  132.257  29.7762  12623.7  13276.3  12919.6  13021.2
  9674.395  9674.400  1.000  137.333  372.025  132.331  30.2565  12364.1  12910.7  12741.2  13075.2
  9674.711  9674.700  1.000  137.19  371.711  132.225  30.717  12364.1  12814.6  12741.2  13075.2
  9674.994  9675.000  1.000  134.833  371.609  132.201  31.1014  12308.6  12814.6  12262.5  12719.7
  9675.305  9675.300  1.000  134.855  371.598  132.212  31.4528  12275.2  12619.2  12261.4  12956
  9675.601  9675.600  1.000  133.01  371.721  132.258  31.7474  12066.6  12532  12121.2  12722.6
  9675.908  9675.900  1.000  132.239  371.552  132.217  31.9747  11829.9  12413.9  12276.5  12613.5
  9676.211  9676.200  1.000  130.236  371.454  132.19  32.1618  11842.2  12244.5  11908.9  12381.1
  9676.499  9676.500  1.000  128.131  371.347  132.168  32.3078  11734.8  12100.2  11604.4  12141.7
  9676.806  9676.800  1.000  125.979  371.38  132.194  32.4402  11466.7  11910.9  11552.3  11856.2
  9677.105  9677.100  1.000  121.817  371.437  132.226  32.5406  11270.9  11463.2  11027.5  11485.6
  9677.409  9677.400  1.000  119.539  371.159  132.142  32.5955  10923.6  11248.8  10898.3  11297.3
  9677.696  9677.700  1.000  115.95  371.256  132.189  32.6553  10526.7  10900.1  10658.9  10961.7
  9678.012  9678.000  1.000  114.981  371.247  132.209  32.6963  10372.7  10958.3  10671.9  10683.3
  9678.303  9678.300  1.000  111.297  371.05  132.16  32.706  10214.4  10412.3  10290.3  10379.8
  9678.603  9678.600  1.000  110.318  371.03  132.162  32.7166  10214.4  10372.2  9945.8  10398.8
  9678.898  9678.900  1.000  108.073  371.032  132.177  32.7307  9880.53  10183.9  9843.62  10190.5
  9679.198  9679.200  1.000  105.248  370.887  132.134  32.7305  9730.48  9960.46  9461.06  9883.01
  9679.497  9679.500  1.000  104.591  370.956  132.175  32.7638  9523.43  10108.7  9475.95  9690.68
  9679.793  9679.800  1.000  101.821  370.622  132.068  32.7858  9536.58  9350.38  9218.58  9631.52
  9680.092  9680.100  1.000  100.721  370.576  132.064  32.847  9466.56  9406.5  9059.35  9392.21
  9680.400  9680.400  1.000  99.9122  370.586  132.085  32.9424  9217.09  9562.76  8983.21  9262.99
  9680.700  9680.700  1.000  98.5724  370.559  132.086  33.0521  9179.8  9453.55  8813.91  9079.66
  9681.003  9681.000  1.000  98.5158  370.586  132.102  33.191  9152.41  9453.55  8730.8  9171.83
  9681.295  9681.300  1.000  98.1137  370.55  132.109  33.3431  9117.95  9214.17  8826.01  9197.9
  9681.603  9681.600  1.000  98.0552  370.457  132.092  33.5105  9090.18  9311.28  8785.94  9137.79
  9681.899  9681.900  1.000  96.6949  370.402  132.073  33.6871  8846.45  9253.18  8738.8  8977.52
  9682.202  9682.200  1.000  97.651  370.316  132.061  33.8754  8967.77  9341.37  8806.97  9045.63
  9682.506  9682.500  1.000  97.5186  370.391  132.114  34.0754  8976.1  9254.21  8903.12  8986.56
  9682.806  9682.800  1.000  97.894  370.217  132.045  34.251  9061.06  9181.11  8901.09  9098.73
  9683.110  9683.100  1.000  97.012  370.069  132.003  34.4234  9092.69  9213.19  8657.75  8937.5
  9683.401  9683.400  1.000  97.5239  370.072  132.008  34.5876  9062.2  9201.12  8706.78  9120.73
  9683.596  9683.600  1.000  97.3578  369.784  131.916  34.6594  8899.66  9124.99  8796.9  9179.81
  9684.605  9684.590  1.000  97.5579  369.791  131.947  35.0102  9017.14  9207.19  8838.02  9013.65
  9685.598  9685.590  1.000  100.723  369.574  131.906  35.147  9224.25  9587.82  9118.49  9294.06
  9686.611  9686.610  1.000  102.348  369.493  131.894  35.1811  9237.45  9907.32  9190.56  9481.35
  9687.674  9687.660  1.000  104.083  369.344  131.877  35.0998  9335.49  9906.32  9569.1  9631.55
  9688.748  9688.720  1.000  103.7  370.419  132.326  35.0268  9423.28  9999.57  9352.85  9636.64
  9689.831  9689.800  1.000  101.244  370.591  132.424  34.759  9317.97  9722.14  9097.57  9382.28
  9690.927  9690.900  1.000  97.6303  370.507  132.431  34.3999  8810.52  9296.32  9012.28  9053.65
  9692.039  9692.020  1.000  94.067  370.344  132.426  33.9874  8759.71  8975.87  8377.34  8724.21
  9693.163  9693.160  1.000  90.2716  370.091  132.381  33.5322  8319.92  8620.21  8102.94  8365.6
  9694.333  9694.310  1.000  88.7827  369.902  132.352  33.0892  8223.97  8564.06  7888.56  8164.28
  9695.502  9695.490  1.000  86.1272  369.621  132.293  32.6691  8105.01  8229.49  7555.05  7944.91
  9696.697  9696.680  1.000  85.3186  369.664  132.366  32.3349  8009.93  8185.48  7468.98  7874.87
  9697.916  9697.900  1.000  86.2887  369.584  132.376  32.0765  8233.44  8185.48  7468.98  8003.03
  9699.147  9699.130  1.000  89.4041  369.43  132.367  31.9032  8289.25  8610.23  7934.69  8194.39
  9700.395  9700.380  1.000  91.655  369.175  132.314  31.811  8332.35  8856.59  8254.13  8393.67
  9701.672  9701.650  1.000  92.9347  369.049  132.312  31.8371  8511.61  8809.54  8254.13  8722.2
  9702.958  9702.940  1.000  96.9342  368.752  132.251  31.9952  8832.88  9203.25  8647.8  9060.73
  9704.264  9704.250  1.000  98.2778  368.555  132.224  32.2976  8953.57  9262.33  8881.1  9123.81
  9705.603  9705.580  1.000  100.328  368.567  132.28  32.6451  9283.4  9408.64  8964.29  9321.19
  9706.934  9706.930  1.000  103.269  368.401  132.262  32.9042  9339.7  9641.01  9440.01  9623.68
  9708.302  9708.300  1.000  103.889  367.861  132.126  33.0754  9421.85  9826.28  9210.62  9757.84
  9709.687  9709.680  1.000  107.111  364.923  131.122  32.9523  9640.79  9801.14  9654.22  9991.09
  9711.101  9711.090  1.000  108.893  365.731  131.435  33.0615  9753.69  10080.7  9851.59  10139.4
  9712.515  9712.510  1.000  109.804  368.085  132.35  33.2053  9917.68  10190  10101.1  10208.6
  9713.959  9713.950  1.000  109.432  367.82  132.299  33.0293  9884.93  10252.1  9956.82  10157.5
  9715.415  9715.410  1.000  109.892  367.547  132.258  32.8587  9928.9  10164.9  9937.77  10358.8
  9716.912  9716.890  1.000  109.493  367.326  132.23  32.7555  9834.12  10295.2  9855.69  10234.6
  9718.397  9718.390  1.000  110.16  366.957  132.147  32.7341  9722.8  10357.3  10006  10337.8
  9719.920  9719.910  1.000  110.905  366.951  132.211  32.8092  9837.24  10416.4  10071  10371.9
  9721.447  9721.450  1.000  111.093  366.801  132.206  32.8783  10116.1  10201.1  10084.1  10347.9
  9723.024  9723.010  1.000  111.603  366.66  132.208  32.9229  10058.2  10283.2  10152.2  10427
  9724.593  9724.580  1.000  112.442  366.466  132.202  32.9469  9907.18  10790  10178.3  10330.8
  9726.199  9726.180  1.000  112.899  366.43  132.239  32.9643  10164.8  10522.5  10186.2  10496.1
  9727.790  9727.790  1.000  111.84  365.986  132.137  32.9153  10162.6  10295.2  10160.2  10313.8
  9729.450  9729.430  1.000  110.261  365.83  132.15  32.8304  9785.09  10158  10162.2  10231.7
  9731.095  9731.080  1.000  110.086  365.769  132.187  32.7082  9586.95  10360.3  9894.77  10424
  9732.778  9732.750  1.000  108.728  365.563  132.178  32.5383  9772.14  10039.8  9704.52  10230.7
  9734.436  9734.440  1.000  108.45  365.396  132.166  32.342  9654.4  10099.8  9674.41  10198.6
  9736.156  9736.150  1.000  107.624  365.283  132.184  32.1528  9619.77  10076.9  9697.51  9919.2
  9737.898  9737.880  1.000  106.296  365.075  132.181  31.9948  9370.04  9987.62  9675.39  9772.93
  9739.640  9739.630  1.000  106.637  364.822  132.15  31.9099  9546.55  9825.41  9655.4  9876.11
  9741.395  9741.390  1.000  105.469  364.809  132.214  31.943  9546.55  9684.18  9408.07  9837.08
  9743.187  9743.180  1.000  104.377  364.608  132.205  32.0752  9371.87  9584.92  9482.13  9617.65
  9744.997  9744.980  1.000  103.485  364.296  132.157  32.3194  9199.89  9537.89  9291.83  9669.76
  9746.815  9746.810  1.000  102.374  364.24  132.202  32.655  9211.7  9463.73  9194.7  9418.37
  9748.655  9748.650  1.000  102.165  363.985  132.186  32.9892  8976.49  9419.69  9346.93  9443.44
  9750.520  9750.510  1.000  102.707  363.808  132.204  33.2801  9266.52  9464.84  9265.84  9368.39
  9752.403  9752.390  1.000  102.332  363.606  132.196  33.4838  9144.5  9474.79  9241.78  9347.3
  9754.290  9754.290  1.000  102.291  363.16  132.094  33.6342  9094.06  9432.72  9145.63  9475.5
  9756.223  9756.210  1.000  101.425  363.102  132.142  33.7862  8839.71  9483.78  9008.42  9495.5
  9758.174  9758.150  1.000  101.359  362.817  132.104  33.9279  8944.47  9247.36  9207.67  9375.31
  9760.121  9760.110  1.000  102.679  362.876  132.189  34.0869  9317.11  9450.8  9103.57  9388.37
  9762.097  9762.080  1.000  103.592  362.585  132.161  34.1938  9175.54  9645.09  9247.77  9492.51
  9764.104  9764.080  1.000  102.608  362.506  132.194  34.2277  8934.87  9487.84  9337.94  9435.46
  9766.111  9766.090  1.000  102.693  362.206  132.162  34.1463  8934.87  9559.94  9235.7  9465.5
  9768.127  9768.120  1.000  102.688  362.06  132.187  34.0017  9050.39  9303.49  9159.61  9665.78
  9770.194  9770.180  1.000  102.453  361.598  132.084  33.8064  8977.06  9406.71  9279.83  9383.35
  9772.266  9772.250  1.000  102.483  360.896  131.889  33.5753  9092.98  9249.44  9174.66  9468.47
  9774.343  9774.340  1.000  103.837  358.092  130.924  33.1423  8890.51  9506.72  9363.83  9422.25
  9776.466  9776.450  1.000  103.602  361.522  132.274  33.2742  9021.93  9454.82  9365.03  9612.75
  9778.590  9778.580  1.000  103.832  361.011  132.152  33.0259  9153.07  9387.7  9332.96  9610.77
  9780.731  9780.720  1.000  105.177  360.806  132.153  32.8108  9342.62  9713.34  9367.02  9525.63
  9782.898  9782.890  1.000  105.052  360.265  132.035  32.6404  9244.41  9633.15  9464.17  9504.62
  9785.092  9785.080  1.000  105.534  356.67  130.792  32.2874  9210.6  9510.81  9295.8  9623.71
  9787.302  9787.280  1.000  106.24  360.212  132.173  32.6784  9280.32  9705.29  9421.13  9862.13
  9789.506  9789.500  1.000  106.77  359.967  132.156  32.7609  9152.57  9739.35  9678.55  9863.2
  9791.772  9791.750  1.000  109.158  355.489  130.612  32.4581  9327.83  9931.42  9483.02  10062.3
  9794.040  9794.010  1.000  107.517  359.773  132.233  32.9394  9310.63  9791.44  9700.52  9879.25
  9796.300  9796.290  1.000  106.705  359.529  132.231  33.0144  9310.63  9621.19  9612.46  9819.18
  9798.620  9798.590  1.000  106.557  358.991  132.114  33.0801  9193.23  9638.25  9682.56  9739
  9800.937  9800.910  1.000  106.244  358.791  132.117  33.2041  9131.65  9626.19  9489.3  9872.27
  9803.258  9803.250  1.000  106.246  353.611  130.307  32.9003  9107.29  9480.77  9365.96  9615.7
  9805.627  9805.600  1.000  105.353  358.708  132.251  33.5672  9028.26  9604.22  9553.41  9604.86
  9808.001  9807.980  1.000  106.016  358.354  132.207  33.7465  9044.77  9667.25  9479.27  9800.13
  9810.385  9810.370  1.000  105.625  358.203  132.224  33.9396  9197.82  9672.3  9400.17  9564.78
  9812.824  9812.790  1.000  105.003  357.755  132.143  34.1372  8936.33  9513.03  9375.13  9741.04
  9815.239  9815.220  1.000  105.097  357.519  132.145  34.3539  9132.26  9476.93  9346.09  9618.84
  9817.684  9817.670  1.000  105.393  357.282  132.145  34.5585  9087.97  9525.04  9453.22  9588.84
  9820.168  9820.150  1.000  104.606  355.59  131.609  34.576  9063.43  9512.98  9221.84  9398.46
  9822.679  9822.640  1.000  104.768  356.953  132.186  34.7681  9057.46  9481.95  9312.99  9544.76
  9825.157  9825.150  1.000  105.006  356.643  132.157  34.6823  9040.81  9535.09  9486.27  9387.54
  9827.687  9827.670  1.000  105.772  356.537  132.212  34.5266  9047.42  9516.04  9391.14  9757.13
  9830.235  9830.220  1.000  103.862  355.169  131.786  34.244  8989.57  9202.52  9090.68  9605.84
  9832.809  9832.790  1.000  103.911  355.773  132.101  34.2031  8984.65  9399.87  9141.74  9442.59
  9835.398  9835.370  1.000  103.227  353.475  131.327  33.9303  8875.94  9185.4  9089.61  9337.32
  9838.000  9837.980  1.000  104.183  354.988  131.977  34.0904  8998.46  9406.88  9218.86  9359.49
  9840.620  9840.600  1.000  104.272  354.727  131.977  34.1029  9030.11  9137.41  9210.88  9609.85
  9843.267  9843.250  1.000  104.77  353.809  131.729  34.0433  8952.19  9233.55  9338.04  9544.74
  9845.924  9845.910  1.000  103.497  354.4  132.043  34.1128  8924.37  9167.48  9079.66  9507.72
  9848.607  9848.590  1.000  104.208  354.182  132.053  34.096  8863.35  9256.63  9239.96  9548.82
  9851.313  9851.290  1.000  103.869  354.057  132.097  34.085  9084.64  9264.67  9061.7  9364.53
  9854.033  9854.010  1.000  103.412  353.857  132.113  34.0636  8909.2  9216.55  9090.68  9376.51
  9856.771  9856.750  1.000  103.586  353.408  132.034  34.025  8914.17  9214.59  9083.73  9395.56
  9859.515  9859.500  1.000  104.802  353.149  132.028  34.0109  8965.17  9284.73  9338.11  9422.6
  9862.299  9862.280  1.000  103.92  352.867  132.023  34.028  8930.88  9395.87  8986.51  9356.49
  9865.097  9865.070  1.000  104.034  352.509  131.967  34.0618  8851.86  9290.72  9059.68  9470.67
  9867.904  9867.890  1.000  103.456  352.324  131.999  34.1323  8703.16  9245.66  9159.79  9341.49
  9870.735  9870.720  1.000  104.792  352.094  132.011  34.2358  8958.03  9355.89  9177.92  9404.62
  9873.592  9873.570  1.000  103.965  351.802  131.996  34.3787  8947.23  9117.46  9259.98  9250.37
  9876.472  9876.450  1.000  103.707  350.838  131.729  34.494  8926.8  9179.52  9050.63  9227.27
  9879.350  9879.340  1.000  104.233  344.139  129.297  34.0489  8612.64  9047.16  8853.26  9357.46
  9882.276  9882.250  1.000  104.45  350.765  131.901  34.929  8895.31  9226.67  9113.81  9401.63
  9885.187  9885.170  1.000  104.571  350.361  131.845  35.1023  8895.31  9226.67  9113.81  9401.63
  9888.146  9888.120  1.000  103.605  350.404  131.962  35.2794  8900.14  9067.42  8995.65  9340.52
  9891.106  9891.090  1.000  103.37  350.001  131.9  35.3728  8900.14  9072.39  8998.6  9208.29
  9894.099  9894.070  1.000  103.588  349.451  131.785  35.4195  8699.37  8994.25  9037.64  9467.7
  9897.101  9897.080  1.000  103.973  350.103  132.145  35.5398  8797.04  9141.58  9088.8  9373.64
  9900.123  9900.100  1.000  103.069  349.611  132.043  35.5115  8583.04  8984.38  9147.98  9318.63
  9903.176  9903.150  1.000  104.51  349.587  132.144  35.4966  8746.94  9212.69  9117.88  9457.72
  9906.218  9906.210  1.000  104.638  349.313  132.148  35.4626  8686.83  9292.86  9050.74  9520.86
  9909.308  9909.290  1.000  104.53  348.771  132.038  35.4102  8877.91  9166.61  8977.64  9434.71
  9912.393  9912.390  1.000  103.034  348.652  132.109  35.4116  8568.29  9041.43  8975.68  9337.6
  9915.538  9915.510  1.000  103.286  348.108  131.997  35.3893  8722.13  9020.4  9028.74  9183.34
  9918.661  9918.650  1.000  103.146  347.715  131.947  35.3932  8742.23  9020.4  8960.65  9142.26
  9921.836  9921.800  1.000  104.022  347.26  131.869  35.3971  8839.1  9025.39  9123.85  9134.26
  9924.992  9924.980  1.000  103.646  346.919  131.844  35.4139  8459.06  9001.34  9096.8  9399.64
  9928.197  9928.170  1.000  103.024  346.297  131.708  35.3968  8552.67  9053.41  8862.44  9208.35
  9931.400  9931.390  1.000  105.009  337.135  128.296  34.5006  8541.68  8920.06  8872.4  9068.14
  9934.648  9934.620  1.000  103.131  346.724  132.071  35.5539  8531.14  9134.68  8837.52  9254.51
  9937.885  9937.870  1.000  103.476  346.392  132.054  35.5913  8740.89  8981.36  9041.79  9079.22
  9941.171  9941.150  1.000  103.074  345.993  132.018  35.6324  8604.74  8866.18  9012.73  9179.39
  9944.451  9944.440  1.000  103.14  345.773  132.033  35.688  8604.74  8866.18  9012.73  9179.39
  9947.780  9947.750  1.000  102.994  345.362  131.981  35.7409  8598.88  8835.17  8851.53  9284.61
  9951.069  9951.070  1.000  101.9  345.033  131.957  35.8091  8432.13  8801.1  8859.53  9066.22
  9954.432  9954.420  1.000  102.51  344.521  131.876  35.8759  8405.71  9008.47  8895.61  9007.18
  9957.798  9957.790  1.000  102.368  335.81  128.662  35.0913  8135.19  8527.25  8677.88  9035.73
  9961.171  9961.170  1.000  102.072  343.555  131.732  36.0473  8349.88  8823.06  8791.37  9103.23
  9964.593  9964.580  1.000  102.365  343.64  131.872  36.2194  8464.72  8857.2  8797.42  9057.2
  9968.005  9968.000  1.000  103.486  342.854  131.659  36.2988  8550.43  8882.24  8963.72  9084.25
  9971.458  9971.450  1.000  103.08  338.17  129.963  35.9338  8423.82  8755.78  8641.95  9036.88
  9974.909  9974.910  1.000  101.657  342.901  131.917  36.56  8423.82  8755.78  8641.95  9036.88
  9978.414  9978.390  1.000  102.922  342.565  131.896  36.6217  8434.47  8680.94  8881.58  9260.55
  9981.900  9981.890  1.000  102.484  341.597  131.636  36.6102  8402.34  8958.45  8670.29  8977.13
  9985.423  9985.410  1.000  101.819  335.209  129.254  35.9992  8269.88  8518.39  8562.88  8779.55
  9988.962  9988.950  1.000  101.91  341.318  131.746  36.7464  8411.4  8735.01  8791.41  8845.9
  9992.516  9992.500  1.000  101.859  340.726  131.629  36.7722  8302.52  8556.75  8857.56  8989.17
  9996.103  9996.080  1.000  102.983  339.671  131.333  36.7275  8302.52  8770  8857.56  9050.16
  9999.696  9999.680  1.000  102.999  340.607  131.806  36.8831  8224.87  8823.26  8920.77  9113.4
  10003.306  10003.290  1.000  102.484  340.093  131.717  36.897  8269.21  8711.01  8756.46  9117.36
  10006.935  10006.920  1.000  102.682  339.702  131.688  36.9296  8157.28  8742.11  8819.56  9162.45
  10010.598  10010.580  1.000  101.391  335.308  130.123  36.5268  8017.68  8614.7  8695.21  8669.53
  10014.263  10014.250  1.000  102.368  338.177  131.306  36.9048  8181.83  8732.03  8679.31  9025.23
  10017.957  10017.940  1.000  102.599  338.428  131.534  37.0011  8211.64  8650.98  8832.56  9027.26
  10021.671  10021.650  1.000  101.624  338.251  131.576  37.0504  8301.53  8560.82  8720.37  8791.88
  10025.402  10025.380  1.000  102.175  337.637  131.451  37.0665  8162.51  8734.11  8759.46  8841.92
  10029.156  10029.120  1.000  101.243  337.319  131.45  37.1067  8162.38  8533.72  8689.35  8765.84
  10032.905  10032.890  1.000  101.564  336.649  131.307  37.1166  8135.29  8585.85  8519.12  8951.14
  10036.713  10036.680  1.000  101.999  334.452  130.567  36.9733  8191.03  8510.68  8582.16  8829.86
  10040.490  10040.480  1.000  101.888  336.674  131.563  37.3162  8247.16  8607.87  8630.26  8817.89
  10044.330  10044.310  1.000  102.4  335.913  131.377  37.3581  8238.22  8600.86  8641.28  8917.08
  10048.169  10048.150  1.000  101.933  335.604  131.371  37.4442  8090.72  8610.95  8687.38  8819.99
  10052.029  10052.010  1.000  100.989  335.246  131.354  37.5369  8091.45  8492.68  8484.01  8787.84
  10055.913  10055.890  1.000  101.697  334.763  131.281  37.6137  8163.67  8447.63  8669.32  8763.84
  10059.810  10059.790  1.000  101.129  334.124  131.14  37.6767  8054.22  8388.52  8505.08  8841.96
  10063.731  10063.710  1.000  101.433  333.604  131.056  37.7499  7923.73  8422.6  8665.29  8826.94
  10067.668  10067.650  1.000  101.215  333.359  131.076  37.8259  7993.23  8564.88  8435  8747.85
  10071.635  10071.610  1.000  102.099  332.994  131.049  37.888  8037.34  8491.71  8486.06  8983.22
  10075.601  10075.580  1.000  102.92  332.389  130.933  37.9264  8093.11  8449.66  8698.43  8968.22
  10079.614  10079.580  1.000  100.995  331.972  130.887  37.9827  8016.01  8391.57  8384.93  8734.83
  10083.622  10083.590  1.000  101.572  331.406  130.786  38.0242  8073.11  8481.72  8404.95  8701.79
  10087.646  10087.630  1.000  101.419  331.077  130.786  38.0978  8036.29  8457.68  8543.18  8540.51
  10091.713  10091.680  1.000  101.126  327.061  129.325  37.747  7896.04  8391.46  8345.72  8441.22
  10095.778  10095.750  1.000  102.467  330.219  130.689  38.2111  8108.75  8358.54  8646.38  8722.84
  10099.874  10099.840  1.000  101.523  329.812  130.654  38.2682  7964.11  8272.35  8417  8830
  10104.013  10103.950  1.000  101.26  329.367  130.607  38.315  7741.08  8323.51  8579.24  8707.8
  10108.071  10108.080  1.000  100.51  328.847  130.508  38.3468  7815.54  8266.41  8276.77  8693.78
  10112.261  10112.230  1.000  101.585  328.393  130.458  38.3894  7874.67  8276.37  8410.97  8797.9
  10116.392  10116.390  1.000  101.644  327.812  130.355  38.4175  7940.07  8274.37  8488.04  8617.64
  10120.620  10120.580  1.000  100.384  327.673  130.425  38.4904  7757.41  8269.33  8288.74  8577.57
  10124.839  10124.780  1.000  101.829  327.188  130.366  38.5269  7938.98  8338.53  8458.05  8581.63
  10129.052  10129.010  1.000  100.925  326.618  130.26  38.5543  7912.04  8184.27  8335.88  8531.56
  10133.282  10133.250  1.000  101.286  326.138  130.191  38.5963  7938.69  8122.12  8399.95  8572.6
  10137.542  10137.510  1.000  100.44  325.662  130.13  38.6425  7717.2  8156.17  8246.71  8589.59
  10141.819  10141.790  1.000  101.437  324.906  129.946  38.6662  7770.65  8212.27  8366.87  8607.64
  10146.127  10146.090  1.000  100.32  324.586  129.953  38.7376  7753.18  7972.88  8238.72  8597.67
  10150.442  10150.410  1.000  100.697  324.201  129.92  38.8018  7647.54  8118.14  8425.98  8454.41
  10154.780  10154.750  1.000  100.382  323.499  129.771  38.8384  7650.38  8065  8205.61  8552.55
  10159.148  10159.110  1.000  101.48  322.933  129.665  38.8883  7758.75  8208.29  8259.72  8544.56
  10163.515  10163.490  1.000  101.177  322.676  129.694  38.9782  7647.64  8133.2  8375.94  8490.51
  10167.922  10167.880  1.000  101.178  322.047  129.567  39.0226  7656.69  8081.06  8290.83  8555.59
  10172.333  10172.300  1.000  101.426  321.533  129.481  39.0825  7694.39  8008.93  8382.93  8525.52
  10176.726  10176.730  1.000  100.756  320.86  129.345  39.1181  7657.64  8045.02  8342.86  8283.12
  10181.221  10181.180  1.000  101.793  320.636  129.373  39.2067  7685.11  8265.41  8246.71  8441.4
  10185.643  10185.650  1.000  99.9738  320.233  129.339  39.2718  7536.21  8099.1  8121.52  8258.09
  10190.164  10190.140  1.000  101.523  319.679  129.265  39.3219  7633.4  8115.13  8221.69  8484.49
  10194.635  10194.650  1.000  101.253  319.065  129.149  39.364  7633.4  7972.84  8311.77  8388.3
  10199.219  10199.180  1.000  100.824  318.479  129.043  39.4086  7579.55  7911.76  8348.88  8270.1
  10203.720  10203.730  1.000  100.792  317.967  128.954  39.4578  7455.66  8163.24  8221.7  8208.02
  10208.294  10208.300  1.000  100.528  317.196  128.78  39.4776  7387.31  8007.99  8251.75  8240.12
  10212.917  10212.880  1.000  100.254  316.963  128.814  39.5552  7532.39  7872.72  8196.66  8174.97
  10217.467  10217.490  1.000  101.462  316.55  128.768  39.6086  7444.63  7953.88  8267.76  8451.42
  10222.126  10222.110  1.000  101.373  315.78  128.593  39.6323  7444.63  8024.01  8268.77  8274.12
  10226.739  10226.760  1.000  101.59  315.111  128.452  39.6556  7470.36  7955.85  8120.52  8465.44
  10231.406  10231.420  1.000  101.247  314.554  128.35  39.6942  7400.96  7917.81  8150.58  8378.26
  10236.100  10236.100  1.000  100.873  313.903  128.229  39.7211  7521.25  7757.5  8120.51  8265.12
  10240.794  10240.800  1.000  100.321  312.964  127.981  39.7156  7372.12  7765.46  8120.51  8138.85
  10245.519  10245.520  1.000  100.619  312.948  128.103  39.8227  7429.5  7828.68  7965.3  8265.13
  10250.240  10250.260  1.000  100.843  312.672  128.125  39.8963  7537.72  7907.84  7943.28  8141.94
  10255.002  10255.010  1.000  101.235  312.037  127.989  39.9255  7405.72  7915.79  8019.36  8248.09
  10259.778  10259.790  1.000  102.25  311.279  127.815  39.9435  7405.72  7915.79  8258.75  8248.09
  10264.567  10264.590  1.000  101.487  310.949  127.807  40.0121  7575.32  7789.54  8000.31  8192
  10269.393  10269.400  1.000  101.146  310.246  127.653  40.0456  7370.27  7930.83  7985.32  8093.83
  10274.223  10274.230  1.000  100.987  309.362  127.425  40.0566  7321.76  7906.81  7924.22  8088.81
  10279.085  10279.090  1.000  101.852  309.032  127.429  40.1349  7380.55  7823.63  8131.52  8139.88
  10283.934  10283.960  1.000  100.782  308.985  127.549  40.2433  7345.51  7728.46  8065.41  8000.67
  10288.834  10288.850  1.000  100.386  309.149  127.735  40.3884  7290.57  7703.43  7897.17  8142.93
  10293.751  10293.760  1.000  102.512  308.639  127.674  40.4457  7423.68  7944.89  8081.47  8189.02
  10298.688  10298.690  1.000  102.328  307.813  127.469  40.461  7423.68  7944.89  7922.22  8207.04