File: docs/_static/March2024/BMM/Zn_ZnO.001
# XDI/1.0 BlueSky/1.11.0 BMM/2023-2.1-py310-tiled
# Beamline.name: BMM (06BM) -- Beamline for Materials Measurement (NIST)
# Beamline.xray_source: NSLS-II three-pole wiggler
# Beamline.collimation: paraboloid mirror, 5 nm Rh on 30 nm Pt
# Beamline.focusing: not in use
# Beamline.harmonic_rejection: flat mirror, Pt stripe, pitch = 7.0 mrad relative to beam
# Beamline.software: Bluesky 1.11.0, Ophyd 1.8.0, DataBroker 2.0.0b23, Python 3.10.8, 2023-2.1-py310-tiled
# Detector.I0: 10 cm N2
# Detector.I1: 25 cm N2
# Detector.I2: 25 cm N2
# Element.symbol: Zn
# Element.edge: K
# Element.reference: Zn
# Element.reference_material: Zn foil
# Facility.name: NSLS-II
# Facility.energy: 3.0
# Facility.current: 400.1
# Facility.mode: top-off
# Facility.GUP: 315355
# Facility.SAF: 313563
# Facility.cycle: 2024-1
# Mono.name: Si(111)
# Mono.d_spacing: 3.13542
# Mono.encoder_resolution: 0.0000050 deg/ct
# Mono.angle_offset: 16.0892 deg
# Mono.scan_mode: pseudo channel cut
# Mono.scan_type: step
# Mono.direction: forward in energy
# Sample.name: ZnO
# Sample.prep: powder on tape
# Sample.x: 113.234 mm
# Sample.y: 81.177 mm
# Sample.SDD_position: 205.000 mm
# Scan.experimenters: Bruce Ravel
# Scan.edge_energy: 9658.6
# Scan.start_time: 2024-03-21T13:54:32
# Scan.end_time: 2024-03-21T14:01:32
# Scan.transient_id: 5330
# Scan.uid: 6cb172b4-bdf4-4b8d-a7ff-3f046fcddf0e
# Scan.hdf5file: None
# Scan.plot_hint: ln(I0/It)  --  ln($5/$6)
# Column.1: energy eV
# Column.2: requested_energy eV
# Column.3: measurement_time seconds
# Column.4: xmu
# Column.5: I0 nA
# Column.6: It nA
# Column.7: Ir nA
# ///////////
# sample courtesy Martin Stennett, University of Sheffield
# -----------
# energy  requested_energy  measurement_time  xmu  I0  It  Ir
  9458.636  9458.600  0.500  1.571619  194.266  40.3508  20.707
  9468.629  9468.600  0.500  1.567233  193.687  40.4072  20.7872
  9478.632  9478.600  0.500  1.562631  193.154  40.482  20.8766
  9488.645  9488.600  0.500  1.558281  192.627  40.5476  20.9611
  9498.629  9498.600  0.500  1.553822  192.294  40.6584  21.0624
  9508.642  9508.600  0.500  1.549242  191.679  40.7143  21.1437
  9518.630  9518.600  0.500  1.544956  191.307  40.8098  21.2407
  9528.674  9528.600  0.500  1.540615  190.784  40.8753  21.3237
  9538.619  9538.600  0.500  1.536442  190.228  40.9266  21.4056
  9548.628  9548.600  0.500  1.532211  189.853  41.0191  21.5021
  9558.631  9558.600  0.500  1.527932  189.34  41.0837  21.5798
  9568.822  9568.600  0.500  1.524088  188.706  41.104  21.6482
  9578.587  9578.600  0.500  1.520007  188.832  41.2996  21.7822
  9588.574  9588.600  0.500  1.516165  188.361  41.3551  21.859
  9598.592  9598.600  0.500  1.512568  187.697  41.3578  21.9122
  9608.578  9608.600  0.500  1.509480  187.392  41.4182  21.9898
  9618.590  9618.600  0.500  1.506788  186.939  41.4295  22.0342
  9628.584  9628.600  0.500  1.505160  186.333  41.3626  22.0342
  9630.578  9630.600  0.500  1.505084  186.326  41.3641  22.0381
  9632.574  9632.600  0.500  1.505127  186.302  41.357  22.0378
  9634.566  9634.600  0.500  1.505209  186.054  41.2987  22.0061
  9636.572  9636.600  0.500  1.505590  185.92  41.2532  21.9832
  9638.574  9638.600  0.500  1.506121  186.035  41.2567  21.9834
  9640.569  9640.600  0.500  1.506751  185.86  41.1921  21.9477
  9642.569  9642.600  0.500  1.507990  185.764  41.1198  21.9054
  9644.574  9644.600  0.500  1.509289  185.771  41.0677  21.8618
  9646.575  9646.600  0.500  1.511430  185.797  40.9858  21.7994
  9648.570  9648.600  0.500  1.514301  185.15  40.7261  21.6393
  9648.863  9648.900  0.500  1.514820  185.27  40.7313  21.6303
  9649.161  9649.200  0.500  1.515422  185.295  40.7123  21.6223
  9649.458  9649.500  0.500  1.515889  185.475  40.7327  21.6235
  9649.760  9649.800  0.500  1.516565  185.645  40.7425  21.6197
  9650.066  9650.100  0.500  1.517112  185.674  40.7265  21.6045
  9650.364  9650.400  0.500  1.517817  185.701  40.7039  21.5855
  9650.669  9650.700  0.500  1.518543  185.616  40.6556  21.5562
  9650.959  9651.000  0.500  1.519260  185.563  40.615  21.5289
  9651.269  9651.300  0.500  1.520039  185.647  40.6017  21.5086
  9651.571  9651.600  0.500  1.520847  185.567  40.5513  21.4738
  9651.869  9651.900  0.500  1.521799  185.687  40.5389  21.4548
  9652.174  9652.200  0.500  1.522824  185.663  40.4922  21.42
  9652.472  9652.500  0.500  1.523798  185.542  40.4264  21.3806
  9652.790  9652.800  0.500  1.524880  185.629  40.4017  21.352
  9653.084  9653.100  0.500  1.525996  185.688  40.3694  21.3205
  9653.386  9653.400  0.500  1.527146  185.738  40.3338  21.2841
  9653.688  9653.700  0.500  1.528463  185.753  40.2839  21.2449
  9653.986  9654.000  0.500  1.529708  185.781  40.24  21.2014
  9654.288  9654.300  0.500  1.531188  185.766  40.1772  21.1529
  9654.586  9654.600  0.500  1.532658  185.707  40.1054  21.0996
  9654.892  9654.900  0.500  1.534191  185.695  40.0414  21.042
  9655.190  9655.200  0.500  1.536120  185.754  39.977  20.9831
  9655.492  9655.500  0.500  1.538022  185.734  39.8967  20.9159
  9655.786  9655.800  0.500  1.540055  185.66  39.7997  20.8381
  9656.092  9656.100  0.500  1.542317  185.702  39.719  20.7643
  9656.390  9656.400  0.500  1.544746  185.723  39.627  20.684
  9656.684  9656.700  0.500  1.547278  185.735  39.5293  20.5946
  9656.991  9657.000  0.500  1.550125  185.578  39.3837  20.4738
  9657.281  9657.300  0.500  1.553214  185.751  39.2988  20.3822
  9657.591  9657.600  0.500  1.556615  185.767  39.1686  20.2557
  9657.885  9657.900  0.500  1.560125  185.805  39.0394  20.1322
  9658.187  9658.200  0.500  1.564184  185.688  38.8567  19.9626
  9658.490  9658.500  0.500  1.568872  185.733  38.6844  19.7856
  9658.792  9658.800  0.500  1.574058  185.708  38.4792  19.5777
  9659.090  9659.100  0.500  1.579756  185.791  38.2777  19.3446
  9659.392  9659.400  0.500  1.586496  185.791  38.0205  19.0585
  9659.691  9659.700  0.500  1.593959  185.767  37.7329  18.714
  9659.997  9660.000  0.500  1.603188  185.826  37.3982  18.2762
  9660.295  9660.300  0.500  1.613482  185.712  36.9925  17.7493
  9660.602  9660.600  0.500  1.626250  185.667  36.5143  17.065
  9660.900  9660.900  0.500  1.640748  185.696  35.9943  16.2823
  9661.195  9661.200  0.500  1.659091  185.738  35.3482  15.3278
  9661.497  9661.500  0.500  1.680358  185.582  34.5753  14.3126
  9661.804  9661.800  0.500  1.707207  185.804  33.6996  13.2395
  9662.094  9662.100  0.500  1.739731  185.668  32.5973  12.1692
  9662.396  9662.400  0.500  1.781295  185.716  31.2782  11.0995
  9662.695  9662.700  0.500  1.829991  185.652  29.7813  10.1136
  9663.002  9663.000  0.500  1.892363  185.598  27.9725  9.115468
  9663.288  9663.300  0.500  1.964555  185.543  26.0164  8.181639
  9663.599  9663.600  0.500  2.055346  185.694  23.7778  7.223972
  9663.897  9663.900  0.500  2.155618  185.736  21.5141  6.349778
  9664.192  9664.200  0.500  2.272586  185.619  19.1272  5.496774
  9664.490  9664.500  0.500  2.398335  185.614  16.8666  4.734403
  9664.789  9664.800  0.500  2.531122  185.589  14.7672  4.057901
  9665.088  9665.100  0.500  2.656578  185.544  13.0229  3.512852
  9665.402  9665.400  0.500  2.773630  185.534  11.5838  3.072473
  9665.693  9665.700  0.500  2.861878  185.62  10.6103  2.774362
  9666.000  9666.000  0.500  2.925673  185.549  9.950748  2.565331
  9666.294  9666.300  0.500  2.960143  185.57  9.614676  2.448317
  9666.605  9666.600  0.500  2.978417  185.544  9.439241  2.372122
  9666.900  9666.900  0.500  2.988045  185.535  9.348319  2.318415
  9667.207  9667.200  0.500  2.999790  185.398  9.232339  2.256238
  9667.498  9667.500  0.500  3.016183  185.314  9.078137  2.185361
  9667.800  9667.800  0.500  3.040622  185.197  8.853396  2.096779
  9668.099  9668.100  0.500  3.073032  185.062  8.564785  1.996832
  9668.402  9668.400  0.500  3.113795  185.002  8.220015  1.886108
  9668.705  9668.700  0.500  3.161490  184.969  7.835769  1.771822
  9669.004  9669.000  0.500  3.218191  185.12  7.409864  1.651346
  9669.303  9669.300  0.500  3.280195  185.225  6.968324  1.532773
  9669.598  9669.600  0.500  3.346986  185.351  6.522546  1.414826
  9669.897  9669.900  0.500  3.413325  185.375  6.104675  1.307894
  9670.196  9670.200  0.500  3.482473  185.279  5.693858  1.205969
  9670.499  9670.500  0.500  3.551939  185.332  5.313292  1.112679
  9670.794  9670.800  0.500  3.619209  185.182  4.963603  1.029604
  9671.089  9671.100  0.500  3.680858  185.262  4.668849  0.960745
  9671.392  9671.400  0.500  3.733053  185.254  4.431228  0.906104
  9671.699  9671.700  0.500  3.768787  185.323  4.277262  0.871824
  9671.994  9672.000  0.500  3.781870  185.239  4.219761  0.861692
  9672.301  9672.300  0.500  3.772300  185.132  4.257873  0.873504
  9672.596  9672.600  0.500  3.743703  185.183  4.382603  0.907859
  9672.907  9672.900  0.500  3.697657  185.064  4.586162  0.962904
  9673.203  9673.200  0.500  3.643596  185.402  4.849757  1.033262
  9673.502  9673.500  0.500  3.580124  185.933  5.182367  1.123009
  9673.801  9673.800  0.500  3.512586  185.785  5.540065  1.221049
  9674.112  9674.100  0.500  3.440545  185.744  5.952592  1.334715
  9674.399  9674.400  0.500  3.374095  185.746  6.361647  1.448976
  9674.707  9674.700  0.500  3.308718  185.73  6.790865  1.568212
  9675.006  9675.000  0.500  3.253351  185.722  7.177139  1.677675
  9675.313  9675.300  0.500  3.201858  185.757  7.557808  1.784685
  9675.597  9675.600  0.500  3.159244  185.781  7.887864  1.877230
  9675.908  9675.900  0.500  3.116886  185.683  8.224799  1.970791
  9676.199  9676.200  0.500  3.075697  185.605  8.567029  2.063726
  9676.503  9676.500  0.500  3.032247  185.756  8.954754  2.167254
  9676.802  9676.800  0.500  2.989481  185.769  9.346704  2.269708
  9677.093  9677.100  0.500  2.948233  185.57  9.729843  2.370238
  9677.389  9677.400  0.500  2.910841  185.691  10.1072  2.467529
  9677.708  9677.700  0.500  2.878886  185.66  10.4336  2.552027
  9677.996  9678.000  0.500  2.856828  185.59  10.6623  2.610769
  9678.295  9678.300  0.500  2.841874  185.614  10.8243  2.652742
  9678.599  9678.600  0.500  2.835542  185.458  10.8839  2.669093
  9678.902  9678.900  0.500  2.836726  185.584  10.8785  2.669711
  9679.202  9679.200  0.500  2.844249  185.556  10.7953  2.650533
  9679.501  9679.500  0.500  2.858998  185.461  10.6318  2.613564
  9679.801  9679.800  0.500  2.880724  185.563  10.409  2.562599
  9680.109  9680.100  0.500  2.908787  185.402  10.1122  2.495557
  9680.400  9680.400  0.500  2.942531  185.413  9.777218  2.419255
  9680.712  9680.700  0.500  2.980067  185.457  9.419241  2.338750
  9681.008  9681.000  0.500  3.018372  185.458  9.065315  2.259397
  9681.307  9681.300  0.500  3.054749  185.396  8.738566  2.188195
  9681.603  9681.600  0.500  3.085849  185.353  8.468999  2.131432
  9681.907  9681.900  0.500  3.111243  185.332  8.255696  2.088938
  9682.210  9682.200  0.500  3.129351  185.306  8.106448  2.061805
  9682.506  9682.500  0.500  3.139068  185.234  8.024938  2.052162
  9682.798  9682.800  0.500  3.140955  185.301  8.012709  2.060069
  9683.093  9683.100  0.500  3.136093  185.306  8.051946  2.080252
  9683.393  9683.400  0.500  3.125817  185.275  8.133792  2.111117
  9683.600  9683.600  0.500  3.117235  185.269  8.203601  2.134779
  9684.605  9684.590  0.500  3.069484  185.267  8.604738  2.260184
  9685.610  9685.590  0.500  3.038819  185.175  8.868277  2.338153
  9686.632  9686.610  0.500  3.010341  184.962  9.113986  2.405230
  9687.682  9687.660  0.500  2.963436  185.05  9.556195  2.514225
  9688.732  9688.720  0.500  2.912466  184.848  10.0449  2.629170
  9689.811  9689.800  0.500  2.876055  184.934  10.4223  2.704900
  9690.919  9690.900  0.500  2.855836  184.894  10.6328  2.730367
  9692.043  9692.020  0.500  2.829636  184.702  10.9038  2.765269
  9693.192  9693.160  0.500  2.781122  184.711  11.4463  2.862968
  9694.337  9694.310  0.500  2.729593  184.563  12.0419  2.973661
  9695.511  9695.490  0.500  2.693337  184.467  12.4801  3.045395
  9696.693  9696.680  0.500  2.676919  184.567  12.6935  3.064504
  9697.908  9697.900  0.500  2.664299  184.401  12.8432  3.078122
  9699.143  9699.130  0.500  2.655020  184.474  12.968  3.090668
  9700.408  9700.380  0.500  2.657119  184.289  12.9279  3.074946
  9701.668  9701.650  0.500  2.673984  184.258  12.7096  3.026261
  9702.950  9702.940  0.500  2.700564  184.196  12.372  2.962239
  9704.252  9704.250  0.500  2.734139  184.131  11.9593  2.891171
  9705.599  9705.580  0.500  2.772694  184.084  11.504  2.810568
  9706.954  9706.930  0.500  2.809792  184.026  11.0816  2.730051
  9708.306  9708.300  0.500  2.841642  183.715  10.7161  2.655714
  9709.687  9709.680  0.500  2.874987  182.106  10.2739  2.555433
  9711.097  9711.090  0.500  2.913590  182.945  9.930335  2.472067
  9712.532  9712.510  0.500  2.957507  183.882  9.552327  2.371802
  9713.967  9713.950  0.500  3.009940  183.601  9.050534  2.236674
  9715.411  9715.410  0.500  3.069757  183.673  8.528389  2.097778
  9716.908  9716.890  0.500  3.114792  183.612  8.150109  1.997649
  9718.410  9718.390  0.500  3.106550  183.396  8.207910  2.010952
  9719.932  9719.910  0.500  3.051778  183.294  8.665211  2.125901
  9721.459  9721.450  0.500  2.987898  183.299  9.237035  2.270801
  9723.024  9723.010  0.500  2.946636  183.241  9.623090  2.368688
  9724.593  9724.580  0.500  2.931250  183.111  9.765381  2.406565
  9726.203  9726.180  0.500  2.926326  182.967  9.805848  2.417157
  9727.802  9727.790  0.500  2.919231  182.96  9.875274  2.431646
  9729.446  9729.430  0.500  2.916126  182.865  9.900854  2.430971
  9731.104  9731.080  0.500  2.927014  182.728  9.786299  2.395030
  9732.761  9732.750  0.500  2.949258  182.568  9.562669  2.329113
  9734.444  9734.440  0.500  2.971055  182.604  9.358333  2.265057
  9736.156  9736.150  0.500  2.987130  182.584  9.208052  2.215407
  9737.898  9737.880  0.500  3.002064  182.466  9.065697  2.170082
  9739.640  9739.630  0.500  3.020432  182.376  8.896321  2.124917
  9741.391  9741.390  0.500  3.034301  182.212  8.765919  2.094438
  9743.195  9743.180  0.500  3.030293  182.099  8.795666  2.110754
  9744.997  9744.980  0.500  3.012376  181.997  8.949638  2.165030
  9746.811  9746.810  0.500  2.987571  182.059  9.177563  2.241291
  9748.659  9748.650  0.500  2.959968  181.745  9.418118  2.323584
  9750.525  9750.510  0.500  2.931643  181.775  9.690285  2.410651
  9752.403  9752.390  0.500  2.904209  181.566  9.948408  2.490990
  9754.306  9754.290  0.500  2.874333  181.561  10.2498  2.579541
  9756.240  9756.210  0.500  2.845240  181.509  10.5494  2.665506
  9758.161  9758.150  0.500  2.820061  181.34  10.8083  2.742095
  9760.121  9760.110  0.500  2.802551  181.39  11.0022  2.803478
  9762.102  9762.080  0.500  2.791924  181.21  11.1087  2.839268
  9764.100  9764.080  0.500  2.788143  181.107  11.1445  2.850685
  9766.090  9766.090  0.500  2.791652  180.966  11.0968  2.833251
  9768.136  9768.120  0.500  2.801410  180.806  10.9793  2.790615
  9770.194  9770.180  0.500  2.816951  180.669  10.8018  2.731691
  9772.253  9772.250  0.500  2.836667  180.214  10.5642  2.657549
  9774.355  9774.340  0.500  2.861000  179.139  10.2488  2.565321
  9776.470  9776.450  0.500  2.883192  180.599  10.1056  2.513138
  9778.594  9778.580  0.500  2.898526  180.411  9.941463  2.455658
  9780.748  9780.720  0.500  2.907848  180.276  9.841801  2.415486
  9782.903  9782.890  0.500  2.913826  179.854  9.760291  2.384474
  9785.104  9785.080  0.500  2.914220  178.235  9.668617  2.359896
  9787.298  9787.280  0.500  2.909544  179.906  9.804977  2.395707
  9789.514  9789.500  0.500  2.904869  179.538  9.830803  2.409536
  9791.772  9791.750  0.500  2.903794  177.344  9.721058  2.388211
  9794.032  9794.010  0.500  2.909171  179.395  9.780757  2.408799
  9796.317  9796.290  0.500  2.918600  179.415  9.690090  2.391913
  9798.616  9798.590  0.500  2.926596  179.269  9.605065  2.376124
  9800.928  9800.910  0.500  2.927918  178.945  9.575020  2.377910
  9803.275  9803.250  0.500  2.917641  176.335  9.532859  2.378907
  9805.623  9805.600  0.500  2.899790  179.202  9.862355  2.473713
  9808.005  9807.980  0.500  2.879732  179.002  10.0509  2.534471
  9810.401  9810.370  0.500  2.862442  178.811  10.2153  2.590916
  9812.819  9812.790  0.500  2.848202  178.741  10.3578  2.642682
  9815.247  9815.220  0.500  2.839261  178.639  10.4448  2.682221
  9817.713  9817.670  0.500  2.836339  178.311  10.4562  2.702004
  9820.135  9820.150  0.500  2.840813  177.453  10.3594  2.689430
  9822.633  9822.640  0.500  2.852629  177.884  10.2626  2.667860
  9825.132  9825.150  0.500  2.866821  177.981  10.1235  2.624135
  9827.658  9827.670  0.500  2.878680  177.84  9.996179  2.579541
  9830.206  9830.220  0.500  2.887262  177.156  9.872642  2.534500
  9832.793  9832.790  0.500  2.892664  177.519  9.839593  2.516081
  9835.356  9835.370  0.500  2.893043  176.24  9.764985  2.492415
  9837.992  9837.980  0.500  2.889515  177.167  9.851074  2.513091
  9840.587  9840.600  0.500  2.885827  177.093  9.883321  2.521464
  9843.259  9843.250  0.500  2.880727  176.438  9.897124  2.526059
  9845.907  9845.910  0.500  2.871499  176.773  10.0078  2.553596
  9848.586  9848.590  0.500  2.859043  176.63  10.1251  2.581630
  9851.292  9851.290  0.500  2.847925  176.51  10.2313  2.606109
  9854.029  9854.010  0.500  2.837568  176.382  10.3304  2.630061
  9856.771  9856.750  0.500  2.826278  176.278  10.4415  2.656174
  9859.515  9859.500  0.500  2.813657  175.937  10.5536  2.684831
  9862.286  9862.280  0.500  2.801969  175.78  10.6682  2.715803
  9865.092  9865.070  0.500  2.792402  175.675  10.7643  2.743793
  9867.917  9867.890  0.500  2.786251  175.553  10.8232  2.764199
  9870.731  9870.720  0.500  2.785433  175.429  10.8244  2.772208
  9873.584  9873.570  0.500  2.788605  175.375  10.7868  2.773826
  9876.472  9876.450  0.500  2.793722  174.892  10.7022  2.767261
  9879.350  9879.340  0.500  2.800885  171.75  10.4349  2.714164
  9882.259  9882.250  0.500  2.809040  174.899  10.5399  2.757284
  9885.182  9885.170  0.500  2.815014  174.787  10.4704  2.752817
  9888.137  9888.120  0.500  2.819899  174.563  10.406  2.748024
  9891.102  9891.090  0.500  2.827002  174.533  10.3306  2.736331
  9894.090  9894.070  0.500  2.832093  174.32  10.2656  2.724358
  9897.093  9897.080  0.500  2.833194  174.126  10.2429  2.720215
  9900.110  9900.100  0.500  2.831054  173.901  10.2516  2.721478
  9903.167  9903.150  0.500  2.826826  173.806  10.2894  2.729018
  9906.209  9906.210  0.500  2.820881  173.622  10.3398  2.738887
  9909.308  9909.290  0.500  2.813835  173.342  10.3961  2.751905
  9912.393  9912.390  0.500  2.807670  173.335  10.46  2.767826
  9915.521  9915.510  0.500  2.803598  173.092  10.4879  2.775447
  9918.673  9918.650  0.500  2.801986  173.04  10.5017  2.781967
  9921.823  9921.800  0.500  2.797834  173.311  10.5619  2.797490
  9925.001  9924.980  0.500  2.790992  173.047  10.6182  2.814103
  9928.180  9928.170  0.500  2.784818  172.633  10.6585  2.827296
  9931.421  9931.390  0.500  2.780136  168.086  10.4264  2.768029
  9934.631  9934.620  0.500  2.776359  172.919  10.7668  2.862047
  9937.889  9937.870  0.500  2.771606  172.621  10.7994  2.872931
  9941.154  9941.150  0.500  2.767071  172.435  10.8368  2.886167
  9944.464  9944.440  0.500  2.763986  172.074  10.8476  2.895372
  9947.763  9947.750  0.500  2.761141  172.116  10.8811  2.908515
  9951.090  9951.070  0.500  2.758527  171.878  10.8945  2.918469
  9954.437  9954.420  0.500  2.756847  171.563  10.8928  2.925748
  9957.798  9957.790  0.500  2.756334  167.299  10.6275  2.861293
  9961.188  9961.170  0.500  2.756585  170.894  10.8532  2.933091
  9964.602  9964.580  0.500  2.757225  170.972  10.8512  2.942958
  9968.022  9968.000  0.500  2.759716  170.618  10.8018  2.940020
  9971.458  9971.450  0.500  2.762598  168.556  10.6405  2.905274
  9974.930  9974.910  0.500  2.761509  170.518  10.7761  2.948596
  9978.418  9978.390  0.500  2.756327  170.302  10.8184  2.966683
  9981.922  9981.890  0.500  2.749360  169.705  10.8558  2.982257
  9985.427  9985.410  0.500  2.743284  167.025  10.7495  2.956403
  9988.966  9988.950  0.500  2.735171  169.554  11.0012  3.030530
  9992.507  9992.500  0.500  2.726024  169.551  11.102  3.060940
  9996.098  9996.080  0.500  2.718023  168.816  11.1427  3.076640
  9999.701  9999.680  0.500  2.714019  169.141  11.209  3.098150
  10003.302  10003.290  0.500  2.712709  169.179  11.2262  3.106103
  10006.948  10006.920  0.500  2.711525  168.943  11.2238  3.108502
  10010.598  10010.580  0.500  2.709944  166.586  11.0847  3.073111
  10014.281  10014.250  0.500  2.708494  168.06  11.199  3.108569
  10017.966  10017.940  0.500  2.706779  168.024  11.2159  3.116561
  10021.702  10021.650  0.500  2.706624  167.847  11.2057  3.117003
  10025.397  10025.380  0.500  2.707419  167.554  11.1773  3.112704
  10029.148  10029.120  0.500  2.706931  167.312  11.1666  3.113077
  10032.922  10032.890  0.500  2.705927  167.074  11.162  3.116869
  10036.709  10036.680  0.500  2.705743  165.694  11.0718  3.097106
  10040.507  10040.480  0.500  2.705098  167.026  11.168  3.128763
  10044.348  10044.310  0.500  2.703276  166.717  11.1676  3.136343
  10048.178  10048.150  0.500  2.700908  166.602  11.1864  3.148691
  10052.046  10052.010  0.500  2.698063  166.309  11.1986  3.160871
  10055.913  10055.890  0.500  2.694703  166.039  11.218  3.174537
  10059.832  10059.790  0.500  2.690509  165.924  11.2574  3.194509
  10063.731  10063.710  0.500  2.686383  165.627  11.2837  3.209506
  10067.682  10067.650  0.500  2.681718  165.396  11.3206  3.226920
  10071.640  10071.610  0.500  2.676421  165.2  11.3672  3.245815
  10075.606  10075.580  0.500  2.671831  164.977  11.4041  3.262508
  10079.619  10079.580  0.500  2.667540  164.804  11.4411  3.279689
  10083.622  10083.590  0.500  2.663625  164.526  11.4667  3.291839
  10087.659  10087.630  0.500  2.659577  164.284  11.4963  3.306546
  10091.726  10091.680  0.500  2.655042  161.871  11.3789  3.279750
  10095.774  10095.750  0.500  2.651041  163.831  11.5628  3.337665
  10099.856  10099.840  0.500  2.647961  163.606  11.5825  3.348949
  10103.977  10103.950  0.500  2.645672  163.307  11.5879  3.356462
  10108.098  10108.080  0.500  2.642926  163.123  11.6067  3.367346
  10112.265  10112.230  0.500  2.640309  162.9  11.6211  3.375828
  10116.419  10116.390  0.500  2.638826  162.683  11.6229  3.381308
  10120.607  10120.580  0.500  2.637869  162.471  11.6189  3.385427
  10124.812  10124.780  0.500  2.636501  162.143  11.6113  3.388051
  10129.047  10129.010  0.500  2.634590  161.916  11.6173  3.395009
  10133.273  10133.250  0.500  2.631875  161.622  11.6276  3.402824
  10137.582  10137.510  0.500  2.628588  161.326  11.6445  3.413842
  10141.814  10141.790  0.500  2.625100  161.126  11.6707  3.428894
  10146.109  10146.090  0.500  2.621248  160.882  11.6981  3.443134
  10150.487  10150.410  0.500  2.617173  160.621  11.7268  3.458108
  10154.816  10154.750  0.500  2.614039  160.418  11.7487  3.472189
  10159.134  10159.110  0.500  2.611325  159.948  11.7461  3.479360
  10163.524  10163.490  0.500  2.608566  159.787  11.7667  3.493470
  10167.895  10167.880  0.500  2.605068  159.598  11.794  3.507938
  10172.369  10172.300  0.500  2.601094  159.372  11.8242  3.523193
  10176.802  10176.730  0.500  2.596859  159.195  11.8612  3.541461
  10181.203  10181.180  0.500  2.593415  158.951  11.8839  3.554153
  10185.675  10185.650  0.500  2.590717  158.643  11.8929  3.565643
  10190.205  10190.140  0.500  2.587974  158.32  11.9013  3.575764
  10194.680  10194.650  0.500  2.585435  157.995  11.9071  3.583394
  10199.219  10199.180  0.500  2.583490  157.878  11.9214  3.593675
  10203.770  10203.730  0.500  2.581426  157.498  11.9173  3.599996
  10208.335  10208.300  0.500  2.579774  157.163  11.9116  3.605717
  10212.953  10212.880  0.500  2.577797  157.015  11.9239  3.615352
  10217.557  10217.490  0.500  2.575038  156.747  11.9364  3.625802
  10222.144  10222.110  0.500  2.572309  156.514  11.9513  3.635882
  10226.838  10226.760  0.500  2.568888  156.082  11.9591  3.644948
  10231.406  10231.420  0.500  2.565477  155.871  11.9838  3.658911
  10236.136  10236.100  0.500  2.561991  155.671  12.0102  3.672645
  10240.866  10240.800  0.500  2.557946  155.158  12.0191  3.681323
  10245.592  10245.520  0.500  2.554126  155.174  12.0664  3.702064
  10250.277  10250.260  0.500  2.550371  154.901  12.0904  3.716898
  10254.989  10255.010  0.500  2.546712  154.555  12.1077  3.730146
  10259.773  10259.790  0.500  2.543047  154.346  12.1357  3.744681
  10264.572  10264.590  0.500  2.539872  154.1  12.1548  3.757804
  10269.397  10269.400  0.500  2.536285  153.763  12.1719  3.770367
  10274.292  10274.230  0.500  2.532391  153.252  12.1787  3.779887
  10279.108  10279.090  0.500  2.528965  153.16  12.2132  3.798475
  10283.975  10283.960  0.500  2.525765  152.875  12.2296  3.810460
  10288.834  10288.850  0.500  2.522782  152.681  12.2505  3.824342
  10293.806  10293.760  0.500  2.519932  152.465  12.2682  3.836702
  10298.665  10298.690  0.500  2.516955  152.17  12.2808  3.848363